Folder: Streamlit_cement_impedance/data/20191106

Note: README.md
# Software KDssZ version 1.0

This software tool works to analyze impedance measurements through a lumped circuital model.

## The repository contains:

- The Python module called [KDssZ.py](https://github.com/dantrica/Streamlit_cement_impedance/blob/c79735cefb679f8cb21de758db89e5011d7d15d4/KDssZ.py) contains the algorithms to optimize the electrical impedance measurements.
- The Python module called [appZ.py](https://github.com/dantrica/Streamlit_cement_impedance/blob/b421c1652a15b18d4e0220819822e362abc5bec6/appZ.py) contains the code to deploy the application on the Streamlit platform.
- All [data](https://github.com/dantrica/Streamlit_cement_impedance/tree/c79735cefb679f8cb21de758db89e5011d7d15d4/data) acquired during the experimental campaign is located in this repository Streamlit_cement_impedance/data/.
- The [Figures](https://github.com/dantrica/Streamlit_cement_impedance/tree/c79735cefb679f8cb21de758db89e5011d7d15d4/figures) folder contains an image describing the lumped circuit model.

## The left sidebar functionalities:

The user can upload the impedance measurements in format .txt. Moreover, this object contains the elements that will be presented in the left sidebar, such as i) the uploading file option, ii) the lumped circuit model, iii) Add and Remove buttons to move data in the Optimization zone, iv) Run and Reset buttons to start and clear the optimization.

## Project Description: 

$\texttt{KDssZ}$ has been developed to optimize experimental electrical impedance data to a lumped circuit model. This approach allows users to correlate the interactions among the components in the composite-electrodes, cement, nanoparticles, and pores with the measured impedance, which is analyzed across three frequency ranges: high, medium, and low. Although the software has been validated with impedance measurements from gold nanoparticles/cement-based composites, it can also be used to study the electrical properties of other cement-based composites. KDssZ is deployed on the Streamlit platform, and in line with the principles of open science, it allows researchers working on similar studies to use this tool to explore new research questions related to cement-based composites.

## Usage instructions:

The main functionalities of the software KDssZ are displayed in Figure~\ref{}, and enumerated according to the following list:

1. Push button \texttt{Browse Files} to upload \texttt{.txt} files with electrical impedance spectroscopy data.
2. Help menu explaining the format files to be received; help hints boxes to report whether a file was added previously or it is already in the optimization zone; and help tips on buttons.
3. Choosing the file data since Select tag.
4. Buttons $\texttt{Add data}$ and $\texttt{Remove}$, to add or remove data to the optimization zone.
5. Buttons $\texttt{Run}$ and $\texttt{Reset}$, to start the optimization, create the plots and return the DataFrame with the parameters.
6. Figures: wide mode and saving options.
7. T

File: Z_p21_1.txt
Index	Frequency (Hz)	Z' (Ω)	-Z'' (Ω)	Z (Ω)	-Phase (°)	Time (s)
1	1000000	1192.08	492.316	1289.74	22.4402	23.0622
2	794330	1249.23	443.795	1325.72	19.5578	24.4922
3	630960	1316.39	391.258	1373.3	16.5531	25.8773
4	501190	1371.96	344.575	1414.57	14.0985	27.4273
5	398110	1411.76	281.892	1439.62	11.292	29.8373
6	316230	1450.8	244.495	1471.26	9.56585	31.2074
7	251190	1480.31	211.458	1495.33	8.12955	32.4824
8	199530	1503.3	183.059	1514.41	6.94278	33.8874
9	158490	1522.43	158.59	1530.66	5.94699	35.3224
10	125890	1538.16	137.993	1544.33	5.12648	36.6275
11	100000	1546.81	121.007	1551.54	4.47315	38.9025
12	79433	1558.71	106.744	1562.36	3.91762	40.1825
13	63096	1569.74	94.8068	1572.6	3.45628	41.6326
14	50119	1579.14	84.8999	1581.42	3.07745	43.0026
15	39811	1586.87	76.7693	1588.73	2.76968	44.3026
16	31623	1595.12	70.4585	1596.67	2.52919	45.5876
17	25119	1602.06	65.9028	1603.41	2.35561	46.9127
18	19953	1608.65	62.6342	1609.87	2.22974	48.2077
19	15849	1615.16	60.2243	1616.28	2.13539	49.5427
20	12589	1622.45	59.1018	1623.52	2.08622	50.8927
21	10000	1629.34	58.9563	1630.4	2.0723	52.2128
22	7943.3	1636.04	59.5603	1637.13	2.08494	53.6128
23	6309.6	1643.2	60.889	1644.32	2.12214	55.0528
24	5011.9	1651.53	63.0176	1652.73	2.18518	56.4028
25	3981.1	1658.65	65.8707	1659.96	2.27422	57.7179
26	3162.3	1667.41	69.4579	1668.86	2.38534	59.0379
27	2511.9	1676.28	73.6549	1677.89	2.51594	60.3579
28	1995.3	1686.12	78.718	1687.96	2.67296	61.6579
29	1584.9	1696.81	84.3619	1698.91	2.84628	62.873
30	1258.9	1707.45	90.9414	1709.87	3.04878	64.238
31	1000	1720.59	98.2007	1723.39	3.26654	65.573
32	794.33	1732.56	106.267	1735.82	3.50985	67.053
33	630.96	1747.91	115.194	1751.71	3.77054	68.3981
34	501.19	1763.86	125.014	1768.29	4.05407	69.7531
35	398.11	1781.29	135.968	1786.47	4.36499	71.0981
36	316.23	1799.66	147.483	1805.69	4.68494	72.4431
37	251.19	1820.93	160.29	1827.97	5.0306	73.7982
38	199.53	1843.53	174.083	1851.73	5.39442	75.1432
39	158.49	1867.6	188.581	1877.09	5.76592	76.5282
40	125.89	1893.6	204.142	1904.57	6.15308	77.9132
41	100	1922.38	221.183	1935.06	6.56342	79.2433
42	79.433	1952.68	239.113	1967.26	6.98133	80.7183
43	63.096	1985.5	258.457	2002.25	7.41661	82.3233
44	50.119	2023.18	280.88	2042.59	7.90388	92.1235
45	39.811	2062.2	303.379	2084.39	8.369	102.804
46	31.623	2102.51	329.175	2128.12	8.89816	104.364
47	25.119	2145.38	358.178	2175.08	9.4783	106.039
48	19.953	2192.25	390.832	2226.82	10.1084	108.004
49	15.849	2243.31	426.818	2283.55	10.7725	110.004
50	12.589	2298.23	467.271	2345.26	11.4926	112.009
51	10	2357.01	512.256	2412.03	12.2616	114.364
52	7.9433	2422.08	562.875	2486.63	13.0829	116.739
53	6.3096	2493.35	620.27	2569.35	13.9699	119.049
54	5.0119	2568.69	685.072	2658.48	14.9332	121.464
55	3.9811	2652.64	758.635	2758.99	15.9602	123.944
56	3.1623	2743.56	842.099	2869.89	17.0631	126.434
57	2.5119	2843.63	938.027	2994.35	18.2562	128.954
58	1.9953	2951.56	1048.39	3132.22	19.5549	131.679
59	1.5849	3073.77	1177.35	3291.54	20.9584	134.449
60	1.2589	3205.68	1322.96	3467.94	22.4257	137.474
61	1	3351.31	1497.29	3670.58	24.074	142.479
62	0.79433	3521.79	1698.07	3909.79	25.7416	145.689
63	0.63096	3709.6	1919.47	4176.78	27.3586	149.21
64	0.50119	3923.02	2191.64	4493.7	29.1904	153.085
65	0.39811	4172.33	2494.51	4861.16	30.8739	157.365
66	0.31623	4463.25	2860	5300.96	32.6513	162.19
67	0.25119	4804.54	3241.49	5795.76	34.0065	167.595
68	0.19953	5207.16	3692.11	6383.27	35.3383	173.835
69	0.15849	5663.98	4205.29	7054.44	36.5925	181.55
70	0.12589	6125.33	4784.94	7772.73	37.996	190.105
71	0.1	6776.21	5472.13	8709.84	38.9226	200.345

File: Z_p22_1.txt
Index	Frequency (Hz)	Z' (Ω)	-Z'' (Ω)	Z (Ω)	-Phase (°)	Time (s)
1	1000000	1252.35	502.255	1349.31	21.8533	66.071
2	794330	1308.7	449.514	1383.75	18.9566	67.566
3	630960	1374.67	393.088	1429.77	15.9579	68.9911
4	501190	1429.16	341.321	1469.35	13.4321	70.5461
5	398110	1467.77	275.402	1493.38	10.627	73.0111
6	316230	1504.75	235.437	1523.06	8.89253	74.3762
7	251190	1531.63	200.792	1544.73	7.46872	75.6712
8	199530	1552.93	171.348	1562.36	6.29646	77.1312
9	158490	1569.83	146.503	1576.65	5.33165	78.5912
10	125890	1574.57	124.887	1579.51	4.53493	80.9063
11	100000	1588.81	107.917	1592.47	3.88577	82.2013
12	79433	1599.05	93.7322	1601.79	3.3547	83.5563
13	63096	1607.96	81.9658	1610.05	2.91813	85.0464
14	50119	1615.35	71.8378	1616.95	2.54637	86.4714
15	39811	1622.42	63.4912	1623.66	2.24105	87.8014
16	31623	1627.27	56.9706	1628.26	2.0051	89.1864
17	25119	1633.58	52.0398	1634.41	1.82461	90.5965
18	19953	1638.71	48.147	1639.42	1.68293	92.0365
19	15849	1644.11	45.2741	1644.73	1.57736	93.4165
20	12589	1648.77	43.1727	1649.33	1.49994	94.8165
21	10000	1653.69	41.6586	1654.21	1.44305	96.1816
22	7943.3	1658.83	40.9848	1659.34	1.41532	97.5816
23	6309.6	1664.01	40.7556	1664.51	1.40303	99.0516
24	5011.9	1669.77	40.9002	1670.27	1.40315	100.417
25	3981.1	1674.03	41.4404	1674.54	1.41806	101.742
26	3162.3	1679.6	42.4033	1680.14	1.44618	103.262
27	2511.9	1685.09	43.6408	1685.65	1.48353	104.632
28	1995.3	1691.34	45.2791	1691.94	1.53351	105.947
29	1584.9	1697.59	47.315	1698.25	1.59653	107.292
30	1258.9	1703.61	49.7073	1704.34	1.67128	108.637
31	1000	1711.08	52.4259	1711.89	1.75494	109.972
32	794.33	1717.41	55.6536	1718.31	1.85605	111.482
33	630.96	1724.96	59.2678	1725.98	1.96785	112.792
34	501.19	1733.28	63.4299	1734.44	2.09582	114.142
35	398.11	1742.16	68.3655	1743.5	2.24724	115.452
36	316.23	1751.34	73.9019	1752.9	2.41629	116.832
37	251.19	1760.86	80.1811	1762.68	2.60718	118.242
38	199.53	1771.83	87.2576	1773.98	2.81938	119.612
39	158.49	1782.97	95.2506	1785.51	3.05798	120.977
40	125.89	1796.36	104.161	1799.37	3.31856	122.372
41	100	1809.13	113.665	1812.7	3.59508	123.772
42	79.433	1823.43	124.558	1827.68	3.9078	125.142
43	63.096	1839.46	136.749	1844.53	4.25167	126.642
44	50.119	1859.64	150.956	1865.76	4.6408	136.527
45	39.811	1879.31	165.923	1886.62	5.04551	145.557
46	31.623	1900.59	183.266	1909.4	5.50776	147.193
47	25.119	1923.29	202.526	1933.92	6.0112	148.808
48	19.953	1946.79	225.368	1959.79	6.6034	150.793
49	15.849	1975.75	250.412	1991.56	7.2233	152.798
50	12.589	2003.53	278.794	2022.83	7.92192	154.888
51	10	2035.64	312.714	2059.52	8.73347	157.208
52	7.9433	2072.19	351.192	2101.73	9.61905	159.558
53	6.3096	2108.28	395.351	2145.03	10.6209	161.938
54	5.0119	2150.84	447.139	2196.83	11.744	167.158
55	3.9811	2197.37	508.354	2255.4	13.0261	169.528
56	3.1623	2247.17	579.707	2320.74	14.4653	172.003
57	2.5119	2301.25	665.385	2395.51	16.1268	174.573
58	1.9953	2364.06	764.4	2484.57	17.9182	177.208
59	1.5849	2431.19	885.269	2587.35	20.0081	179.928
60	1.2589	2508.11	1027.31	2710.35	22.2737	184.338
61	1	2593.5	1198.69	2857.11	24.8058	189.263
62	0.79433	2692.37	1404.39	3036.64	27.5474	192.533
63	0.63096	2804.21	1642.97	3250.07	30.3658	196.063
64	0.50119	2930.33	1942.32	3515.6	33.5378	199.933
65	0.39811	3079.67	2290.74	3838.21	36.6429	204.214
66	0.31623	3254.45	2729.76	4247.71	39.9891	208.949
67	0.25119	3473.35	3224.39	4739.29	42.8712	214.324
68	0.19953	3733.53	3831.42	5349.67	45.7413	220.534
69	0.15849	4021.96	4555.37	6076.8	48.5585	227.804
70	0.12589	4369.98	5461.42	6994.56	51.3348	236.369
71	0.1	4854	6480.04	8096.43	53.1643	246.604

File: Z_p23_1.txt
Index	Frequency (Hz)	Z' (Ω)	-Z'' (Ω)	Z (Ω)	-Phase (°)	Time (s)
1	1000000	1491.95	670.707	1635.77	24.2064	110.218
2	794330	1573.19	603.226	1684.88	20.9789	111.673
3	630960	1666.12	535.877	1750.18	17.8294	113.123
4	501190	1746.71	469.913	1808.82	15.0576	114.693
5	398110	1809.6	387.722	1850.67	12.0933	117.943
6	316230	1863.16	337.042	1893.39	10.2538	119.338
7	251190	1872.8	280.552	1893.7	8.51976	122.603
8	199530	1916.36	247.789	1932.31	7.36758	123.948
9	158490	1949.95	217.293	1962.02	6.35854	125.338
10	125890	1976.92	190.613	1986.09	5.50738	126.698
11	100000	1998.93	166.802	2005.88	4.77001	128.143
12	79433	2016.43	146.767	2021.76	4.16296	129.468
13	63096	2031.1	129.835	2035.25	3.65758	130.933
14	50119	2044.37	115.558	2047.63	3.23521	132.348
15	39811	2056.67	103.57	2059.28	2.88288	133.673
16	31623	2065.91	93.7234	2068.03	2.59754	135.033
17	25119	2074.44	86.6312	2076.24	2.39136	136.343
18	19953	2083.77	80.379	2085.32	2.20902	137.653
19	15849	2092.98	76.631	2094.38	2.09685	139.018
20	12589	2101.24	73.5015	2102.53	2.00339	140.343
21	10000	2109.27	71.827	2110.49	1.95034	141.728
22	7943.3	2117.41	71.1336	2118.61	1.9241	143.143
23	6309.6	2126.46	71.5706	2127.67	1.92768	144.508
24	5011.9	2134.01	72.705	2135.25	1.95129	145.878
25	3981.1	2143.28	75.1334	2144.6	2.0077	147.234
26	3162.3	2151.85	78.1709	2153.27	2.08049	148.544
27	2511.9	2160.85	82.3625	2162.42	2.18281	149.854
28	1995.3	2170.61	87.8103	2172.38	2.3166	151.229
29	1584.9	2181.24	94.4847	2183.29	2.48032	152.514
30	1258.9	2193.24	102.56	2195.64	2.6773	153.839
31	1000	2203.55	112.218	2206.4	2.91534	155.194
32	794.33	2216.75	124.139	2220.23	3.20524	156.644
33	630.96	2229.84	138.102	2234.11	3.54402	157.979
34	501.19	2244.58	154.914	2249.92	3.94812	159.439
35	398.11	2259.85	174.896	2266.61	4.42546	160.799
36	316.23	2279.2	198.522	2287.83	4.97799	162.134
37	251.19	2299.26	226.75	2310.41	5.63222	163.534
38	199.53	2322.61	259.461	2337.06	6.37414	164.744
39	158.49	2347.56	298.03	2366.41	7.23515	166.144
40	125.89	2378.75	343.349	2403.4	8.21335	167.584
41	100	2413.09	395.978	2445.37	9.31893	168.874
42	79.433	2452.97	457.554	2495.28	10.566	170.314
43	63.096	2499.59	529.532	2555.06	11.9611	171.854
44	50.119	2555.78	614.979	2628.73	13.5295	173.299
45	39.811	2618.79	709.955	2713.32	15.1683	182.469
46	31.623	2693.65	822.124	2816.31	16.9726	184.109
47	25.119	2780.42	951.896	2938.85	18.899	185.744
48	19.953	2882.05	1102.3	3085.66	20.9305	187.729
49	15.849	3003.36	1274.95	3262.77	23.0016	189.724
50	12.589	3146.93	1472.72	3474.49	25.079	191.874
51	10	3313.73	1698.15	3723.51	27.1332	194.274
52	7.9433	3510.5	1953.92	4017.64	29.0999	196.654
53	6.3096	3745.19	2243.61	4365.8	30.9244	198.999
54	5.0119	4016.35	2567.13	4766.68	32.5855	201.455
55	3.9811	4337.92	2928.04	5233.64	34.0188	203.995
56	3.1623	4710.7	3327.48	5767.4	35.2361	206.53
57	2.5119	5139.24	3763.84	6370.11	36.218	209.15
58	1.9953	5638.58	4236.91	7053.01	36.9217	211.89
59	1.5849	6216.9	4764	7832.34	37.4629	214.745
60	1.2589	6849.02	5309.33	8665.92	37.7827	217.635
61	1	7579.39	5916.23	9615.03	37.9745	222.695
62	0.79433	8396.43	6567.46	10659.8	38.0316	225.935
63	0.63096	9295.11	7262.54	11795.9	38.0015	229.435
64	0.50119	10295.8	8016.04	13048.4	37.9035	233.335
65	0.39811	11406.9	8834.93	14428.2	37.7587	237.62
66	0.31623	12651.8	9693.98	15938.7	37.4598	242.42
67	0.25119	13957.2	10641.9	17551.5	37.3242	248.02
68	0.19953	15441.3	11626.9	19329.2	36.9788	254.23
69	0.15849	17040.3	12731.1	21270.9	36.7641	261.596
70	0.12589	18906.3	13864.6	23445.2	36.2537	270.186
71	0.1	20744.6	15052.6	25630.4	35.9653	280.431

File: Z_p24_1.txt
Index	Frequency (Hz)	Z' (Ω)	-Z'' (Ω)	Z (Ω)	-Phase (°)	Time (s)
1	1000000	1282.54	571.602	1404.15	24.0215	22.4192
2	794330	1352.63	519.82	1449.08	21.0219	24.4293
3	630960	1432.21	465.287	1505.9	17.9976	25.9893
4	501190	1502.46	414.044	1558.46	15.407	27.5943
5	398110	1554.93	344.549	1592.65	12.494	30.9244
6	316230	1602.13	303.356	1630.59	10.7218	32.3544
7	251190	1641.72	264.988	1662.97	9.16893	33.7045
8	199530	1672.87	232.183	1688.91	7.90179	35.1595
9	158490	1684.65	200.872	1696.58	6.79964	37.5295
10	125890	1710.66	178.178	1719.92	5.94633	39.0646
11	100000	1731.77	157.907	1738.95	5.20998	41.2196
12	79433	1749.28	140.72	1754.93	4.59923	42.6796
13	63096	1764.3	125.051	1768.72	4.05427	44.0846
14	50119	1777.02	112.863	1780.6	3.6341	45.5047
15	39811	1789.53	102.555	1792.46	3.27994	47.2897
16	31623	1799.98	93.7768	1802.43	2.98234	48.6597
17	25119	1809.84	87.1419	1811.94	2.7566	50.0298
18	19953	1818.74	81.7817	1820.57	2.57464	51.5548
19	15849	1827.33	77.8919	1828.99	2.44082	52.8998
20	12589	1836.24	75.3036	1837.78	2.34837	54.2848
21	10000	1844.32	73.9488	1845.81	2.29606	55.8199
22	7943.3	1853.29	73.6939	1854.75	2.2771	57.1999
23	6309.6	1861.62	74.62	1863.11	2.29538	58.5549
24	5011.9	1869.55	76.67	1871.12	2.34838	59.9449
25	3981.1	1878.83	79.8343	1880.52	2.43313	61.345
26	3162.3	1887.17	84.203	1889.05	2.55477	62.685
27	2511.9	1896.37	89.9611	1898.5	2.71599	64.125
28	1995.3	1907.19	97.2863	1909.67	2.92014	65.535
29	1584.9	1917.25	106.349	1920.2	3.17491	66.8301
30	1258.9	1928.77	117.249	1932.33	3.47869	68.1701
31	1000	1940.71	130.197	1945.07	3.83807	69.5601
32	794.33	1954.45	145.694	1959.88	4.26321	71.0201
33	630.96	1970.96	164.246	1977.79	4.76361	72.5302
34	501.19	1987.47	186.149	1996.17	5.35078	73.9452
35	398.11	2007.43	211.926	2018.59	6.02643	75.2552
36	316.23	2028.91	242.082	2043.3	6.80415	76.6602
37	251.19	2054.99	277.621	2073.65	7.69385	78.0553
38	199.53	2083.26	318.787	2107.51	8.70009	79.2853
39	158.49	2115.44	366.298	2146.92	9.82362	80.7153
40	125.89	2154.96	422.054	2195.9	11.0813	82.1304
41	100	2199.21	485.948	2252.26	12.4601	83.4854
42	79.433	2248.64	559.299	2317.15	13.9676	85.0104
43	63.096	2308	644.67	2396.35	15.6061	86.5904
44	50.119	2378.7	744.077	2492.36	17.3701	96.5356
45	39.811	2456.32	857.034	2601.54	19.2344	105.601
46	31.623	2546.23	988.752	2731.47	21.2222	109.421
47	25.119	2650.77	1140.01	2885.52	23.271	110.986
48	19.953	2769.24	1316.13	3066.08	25.4202	112.991
49	15.849	2910.77	1520.23	3283.85	27.5771	115.026
50	12.589	3074.99	1753.74	3539.94	29.6971	117.031
51	10	3268.8	2024.16	3844.77	31.7673	119.396
52	7.9433	3497.21	2334.92	4205.04	33.7292	121.766
53	6.3096	3767.53	2687.34	4627.75	35.4999	124.211
54	5.0119	4081.11	3082.81	5114.61	37.0669	126.611
55	3.9811	4451.47	3526.67	5679.17	38.388	129.116
56	3.1623	4885.92	4022.06	6328.44	39.461	131.721
57	2.5119	5382.31	4572.04	7062.07	40.3464	134.341
58	1.9953	5945.4	5177.17	7883.58	41.0489	136.956
59	1.5849	6586.62	5835.91	8800.08	41.5417	139.766
60	1.2589	7310.46	6572.65	9830.7	41.9579	142.621
61	1	8102.08	7389.32	10965.7	42.3657	147.807
62	0.79433	9005.46	8316.98	12258.5	42.724	150.997
63	0.63096	9986.55	9350.12	13680.5	43.1149	154.522
64	0.50119	11114.9	10545.5	15321.5	43.4942	158.342
65	0.39811	12328.4	11903.4	17137.2	43.9951	162.612
66	0.31623	13767.6	13439.2	19239.5	44.3084	167.467
67	0.25119	15297.5	15177.7	21549.4	44.7747	172.967
68	0.19953	17095.2	17054.6	24147.6	44.9319	185.082
69	0.15849	19156.4	19315.1	27203.7	45.2363	199.348
70	0.12589	21414.6	21810.8	30566.3	45.5252	207.838
71	0.1	24115.3	24844.3	34623.5	45.853	218.073

File: Z_p25_1.txt
Index	Frequency (Hz)	Z' (Ω)	-Z'' (Ω)	Z (Ω)	-Phase (°)	Time (s)
1	1000000	1404.19	627.135	1537.87	24.0664	110.503
2	794330	1480.69	570.357	1586.74	21.0665	111.913
3	630960	1568.59	510.102	1649.44	18.0145	113.368
4	501190	1644.76	450.567	1705.36	15.3198	114.908
5	398110	1704.81	376.108	1745.81	12.441	118.158
6	316230	1758.73	330.177	1789.46	10.6327	119.528
7	251190	1799.58	289.356	1822.7	9.13446	120.868
8	199530	1812.84	247.813	1829.7	7.78401	123.303
9	158490	1845.99	220.417	1859.1	6.80907	124.563
10	125890	1874.34	195.781	1884.54	5.9631	125.948
11	100000	1897.93	174.166	1905.91	5.24313	127.443
12	79433	1917.59	155.486	1923.88	4.63563	128.798
13	63096	1935.56	139.632	1940.59	4.12618	130.168
14	50119	1948.7	125.925	1952.76	3.69733	131.468
15	39811	1963.38	114.699	1966.73	3.34337	132.788
16	31623	1974.6	105.041	1977.39	3.04503	134.163
17	25119	1985.65	98.0641	1988.07	2.82734	135.518
18	19953	1996.05	92.7024	1998.21	2.65907	136.908
19	15849	2006.47	88.5769	2008.43	2.52771	138.263
20	12589	2016.23	85.8533	2018.05	2.43825	139.648
21	10000	2025.53	84.5133	2027.29	2.38923	141.093
22	7943.3	2035.36	84.5149	2037.12	2.37774	142.518
23	6309.6	2045.12	85.9361	2046.93	2.40615	143.973
24	5011.9	2054.32	88.1944	2056.21	2.45826	145.368
25	3981.1	2065.3	92.2522	2067.35	2.55758	146.754
26	3162.3	2075.86	97.2972	2078.14	2.68353	148.034
27	2511.9	2086.18	103.501	2088.74	2.84027	149.439
28	1995.3	2098.42	111.649	2101.39	3.04563	150.784
29	1584.9	2110.41	121.178	2113.88	3.28626	151.964
30	1258.9	2124.53	132.895	2128.68	3.57934	153.319
31	1000	2139.7	146.663	2144.72	3.92112	154.699
32	794.33	2155.44	162.791	2161.58	4.31909	156.119
33	630.96	2174.88	182.175	2182.5	4.7881	157.514
34	501.19	2194.59	204.676	2204.12	5.32821	158.849
35	398.11	2215.88	230.978	2227.88	5.9509	160.174
36	316.23	2241.67	261.788	2256.9	6.66099	161.544
37	251.19	2269.56	297.994	2289.04	7.48016	162.959
38	199.53	2301.51	339.649	2326.44	8.39491	164.239
39	158.49	2336.71	388.285	2368.75	9.43449	165.599
40	125.89	2378.87	444.778	2420.09	10.5903	167.034
41	100	2425.3	509.609	2478.26	11.8665	168.454
42	79.433	2480.04	584.34	2547.95	13.258	170.039
43	63.096	2543.03	670.547	2629.95	14.7715	171.599
44	50.119	2616.03	769.928	2726.98	16.3998	173.129
45	39.811	2702.57	886.565	2844.27	18.1619	182.299
46	31.623	2798.5	1018.16	2977.96	19.9927	183.974
47	25.119	2911.29	1168.05	3136.87	21.8614	185.589
48	19.953	3042.09	1343.15	3325.41	23.8224	187.504
49	15.849	3191.56	1538.64	3543.08	25.7385	189.574
50	12.589	3368.55	1764.73	3802.82	27.6493	191.699
51	10	3573.2	2020.86	4105.08	29.4907	194.029
52	7.9433	3813.97	2314.82	4461.47	31.2549	196.374
53	6.3096	4092.97	2643.58	4872.46	32.8577	198.779
54	5.0119	4414.27	3006.24	5340.72	34.256	201.365
55	3.9811	4796.82	3423.08	5892.96	35.5122	204.065
56	3.1623	5240.1	3865.17	6511.39	36.413	206.74
57	2.5119	5755.54	4367.69	7225.16	37.1936	209.41
58	1.9953	6342.95	4905.35	8018.45	37.7167	212.11
59	1.5849	7025.15	5495.96	8919.55	38.037	214.975
60	1.2589	7805.72	6105.34	9909.82	38.0312	217.855
61	1	8652.87	6755.52	10977.7	37.9801	222.975
62	0.79433	9618.81	7416.9	12146.3	37.6352	226.215
63	0.63096	10680.6	8130.38	13423	37.2795	229.81
64	0.50119	11856.6	8874.59	14810	36.8146	233.685
65	0.39811	13133.5	9665.5	16306.8	36.3508	237.96
66	0.31623	14530.7	10490.4	17921.8	35.8273	242.88
67	0.25119	16049.6	11303.1	19630.3	35.1555	248.445
68	0.19953	17757.6	12167	21526	34.4178	254.761
69	0.15849	19441	13043.7	23411.3	33.8591	262.021
70	0.12589	21363.3	14120.8	25608.4	33.464	270.631
71	0.1	23223.3	14971.5	27630.9	32.809	291.706

File: Z_p26_1.txt
Index	Frequency (Hz)	Z' (Ω)	-Z'' (Ω)	Z (Ω)	-Phase (°)	Time (s)
1	1000000	1640.71	794.612	1823	25.8414	92.9195
2	794330	1744.4	719.732	1887.04	22.4209	94.3846
3	630960	1860.07	639.658	1966.98	18.9776	95.8546
4	501190	1961.14	561.623	2039.97	15.9804	97.4396
5	398110	2037.54	461.613	2089.18	12.7651	100.73
6	316230	2100.49	400.875	2138.4	10.8049	102.11
7	251190	2113.2	330.278	2138.85	8.88307	105.355
8	199530	2161.5	290.249	2180.9	7.648	106.73
9	158490	2200.76	253.865	2215.36	6.58016	108.135
10	125890	2230.19	220.847	2241.1	5.65532	109.475
11	100000	2254.86	192.626	2263.07	4.88276	110.985
12	79433	2275.03	168.689	2281.28	4.24061	112.365
13	63096	2290.09	147.943	2294.87	3.69624	113.765
14	50119	2305.09	130.656	2308.79	3.24414	115.135
15	39811	2317.22	116.674	2320.16	2.88244	116.595
16	31623	2327.35	105.401	2329.74	2.59302	117.985
17	25119	2336.58	97.0065	2338.59	2.37735	119.38
18	19953	2346.03	90.8071	2347.79	2.21662	120.805
19	15849	2355.49	85.768	2357.05	2.08533	122.15
20	12589	2362.95	83.159	2364.41	2.01557	123.585
21	10000	2372.9	81.814	2374.31	1.97469	124.97
22	7943.3	2381.45	82.0005	2382.87	1.97208	126.385
23	6309.6	2390.83	83.2586	2392.27	1.99447	127.81
24	5011.9	2399.55	85.9964	2401.09	2.05252	129.225
25	3981.1	2408.41	89.9627	2410.09	2.13921	130.575
26	3162.3	2419.16	95.1105	2421.03	2.25146	131.955
27	2511.9	2430.76	101.819	2432.89	2.39858	133.375
28	1995.3	2441.71	109.845	2444.18	2.57582	134.745
29	1584.9	2453.92	119.556	2456.83	2.78928	136.05
30	1258.9	2468.75	131.195	2472.23	3.04198	137.46
31	1000	2482.88	145.07	2487.12	3.34387	138.775
32	794.33	2498.75	161.407	2503.96	3.69589	140.31
33	630.96	2516.93	180.647	2523.4	4.10524	141.71
34	501.19	2537.17	202.907	2545.27	4.57242	143.125
35	398.11	2559.14	229.131	2569.38	5.11631	144.501
36	316.23	2584.69	259.309	2597.66	5.72904	145.786
37	251.19	2613.28	294.689	2629.84	6.43384	147.136
38	199.53	2645.47	335.279	2666.63	7.22301	148.591
39	158.49	2682.65	381.664	2709.67	8.0972	150.026
40	125.89	2725.83	435.236	2760.36	9.07191	151.506
41	100	2772.76	496.074	2816.79	10.1435	152.896
42	79.433	2828.01	566.245	2884.14	11.3225	154.431
43	63.096	2890.97	646.328	2962.34	12.6022	156.056
44	50.119	2960.87	736.206	3051.02	13.9632	157.611
45	39.811	3046.24	843.72	3160.93	15.4812	166.786
46	31.623	3140.9	964.375	3285.61	17.0685	168.446
47	25.119	3247.61	1102.17	3429.54	18.7461	170.041
48	19.953	3371.93	1260.77	3599.92	20.5009	172.021
49	15.849	3518.52	1441.85	3802.49	22.2833	174.166
50	12.589	3685.63	1647.54	4037.11	24.0855	176.241
51	10	3878.84	1879.54	4310.22	25.8531	178.591
52	7.9433	4103.98	2140.72	4628.75	27.5475	181.016
53	6.3096	4362.36	2433.52	4995.21	29.1547	183.451
54	5.0119	4661.14	2759.23	5416.6	30.624	185.911
55	3.9811	5005.49	3117.86	5897.12	31.9183	188.366
56	3.1623	5394.71	3512.3	6437.33	33.0667	191.056
57	2.5119	5818.92	3959.97	7038.55	34.2366	193.686
58	1.9953	6301.69	4433.68	7705.11	35.1291	196.406
59	1.5849	6840.36	4968.73	8454.51	35.9941	199.222
60	1.2589	7398.52	5607.53	9283.45	37.1594	202.092
61	1	8050.23	6284.2	10212.6	37.9765	207.247
62	0.79433	8771.47	7095.29	11281.9	38.9696	210.487
63	0.63096	9561.58	8033.06	12488.1	40.035	214.052
64	0.50119	10465	9102.54	13869.8	41.017	218.047
65	0.39811	11472.6	10372.1	15466.2	42.116	222.362
66	0.31623	12671.1	11807.2	17319.5	42.9787	227.132
67	0.25119	13965.4	13441.6	19383.2	43.9052	232.597
68	0.19953	15510.2	15262.1	21760	44.5381	238.907
69	0.15849	17299.7	17380	24522.3	45.1326	246.237
70	0.12589	19311.1	19677.3	27570.2	45.5381	263.603
71	0.1	21771.6	22333.4	31189.5	45.7298	273.803