Folder: Streamlit_cement_impedance/data/20200619 (part 13)

File: Z_p45_3.txt
Index	Frequency (Hz)	Z' (Ω)	-Z'' (Ω)	Z (Ω)	-Phase (°)	Time (s)
1	1000000	1850.14	1118.93	2162.18	31.1648	791.84
2	794330	1999.18	1047.78	2257.12	27.6593	793.916
3	630960	2182.92	995.687	2399.28	24.5189	796.107
4	501190	2363.86	935.148	2542.11	21.5839	798.313
5	398110	2521.79	848.272	2660.63	18.5918	805.192
6	316230	2666.4	777.394	2777.42	16.2541	807.293
7	251190	2746.67	669.451	2827.08	13.6977	814.232
8	199530	2862.23	606.86	2925.86	11.9708	816.279
9	158490	2954.98	542.421	3004.35	10.4015	818.465
10	125890	3030.15	480.053	3067.94	9.00229	820.501
11	100000	3090.01	422.543	3118.77	7.78662	822.697
12	79433	3140.83	370.56	3162.61	6.72873	824.803
13	63096	3179.79	324.569	3196.31	5.82814	826.964
14	50119	3215.42	284.803	3228.01	5.06171	829.125
15	39811	3244.73	250.095	3254.35	4.4075	831.311
16	31623	3266.89	219.793	3274.27	3.84901	833.307
17	25119	3287.85	197.153	3293.75	3.43159	835.248
18	19953	3307.47	177.33	3312.22	3.06898	837.319
19	15849	3325.53	161.477	3329.45	2.77992	839.41
20	12589	3341.67	148.329	3344.96	2.54155	841.511
21	10000	3359.06	137.616	3361.88	2.34601	843.592
22	7943.3	3372	129.699	3374.49	2.20271	845.553
23	6309.6	3385.62	123.089	3387.85	2.08216	847.639
24	5011.9	3400.09	118.478	3402.16	1.99569	849.635
25	3981.1	3411.5	115.122	3413.45	1.93272	851.861
26	3162.3	3428.25	113.368	3430.13	1.89402	853.872
27	2511.9	3440.75	112.046	3442.58	1.86514	855.853
28	1995.3	3455.42	111.525	3457.22	1.8486	857.854
29	1584.9	3469.84	112.231	3471.66	1.85257	860.88
30	1258.9	3482.72	112.941	3484.55	1.85738	862.886
31	1000	3498.39	114.989	3500.28	1.88258	864.962
32	794.33	3514.48	117.448	3516.45	1.91401	867.188
33	630.96	3530.95	120.566	3533	1.95564	869.249
34	501.19	3546.07	124.591	3548.26	2.01226	871.226
35	398.11	3562.69	129.451	3565.04	2.08094	873.297
36	316.23	3580.72	134.869	3583.25	2.15704	875.318
37	251.19	3597.74	141.007	3600.5	2.24445	877.504
38	199.53	3616.93	149.716	3620.02	2.37029	879.625
39	158.49	3636.75	159.09	3640.23	2.50482	881.666
40	125.89	3657.57	169.703	3661.51	2.6565	883.712
41	100	3679.61	182.562	3684.13	2.84038	885.883
42	79.433	3701.57	196.137	3706.76	3.03312	888.039
43	63.096	3728.38	212.618	3734.44	3.26387	890.26
44	50.119	3756.78	234.432	3764.09	3.57076	892.451
45	39.811	3783.51	250.945	3791.82	3.79465	902.227
46	31.623	3818.37	274.489	3828.23	4.11172	904.643
47	25.119	3851.88	299.858	3863.53	4.45134	907.004
48	19.953	3892.4	329.823	3906.35	4.84339	909.6
49	15.849	3934.25	360.436	3950.72	5.23454	912.206
50	12.589	3981.2	395.329	4000.78	5.67083	914.882
51	10	4031.92	433.494	4055.16	6.1366	917.823
52	7.9433	4085.92	477.333	4113.71	6.66331	920.844
53	6.3096	4144.68	524.492	4177.74	7.21221	924.046
54	5.0119	4207.63	578.1	4247.16	7.82308	927.432
55	3.9811	4275.51	637.925	4322.84	8.48618	930.608
56	3.1623	4348.05	708.558	4405.41	9.25555	933.829
57	2.5119	4428.02	785.909	4497.22	10.0644	937.16
58	1.9953	4516.86	885.83	4602.9	11.0958	940.621
59	1.5849	4609.01	992.805	4714.72	12.1561	944.157
60	1.2589	4709.49	1117.96	4840.37	13.354	947.858
61	1	4808.25	1272.6	4973.81	14.8246	954.59
62	0.79433	4931.9	1455.41	5142.17	16.4414	958.411
63	0.63096	5051	1655.73	5315.45	18.1493	962.642
64	0.50119	5166.49	1921.1	5512.1	20.3971	967.333
65	0.39811	5313	2248.9	5769.36	22.9421	972.314
66	0.31623	5469.36	2616.61	6063.05	25.567	977.741
67	0.25119	5640.58	3101.99	6437.27	28.8082	983.902
68	0.19953	5896.15	3654.44	6936.82	31.7907	990.843
69	0.15849	6132.59	4384.33	7538.64	35.5618	998.824
70	0.12589	6409.14	5204.5	8256.14	39.0781	1008.08
71	0.1	6665.1	6164.4	9078.73	42.765	1018.98

File: Z_p46_1.txt
Index	Frequency (Hz)	Z' (Ω)	-Z'' (Ω)	Z (Ω)	-Phase (°)	Time (s)
1	1000000	2922.5	2025.01	3555.51	34.7182	85.9874
2	794330	3226.96	1846.3	3717.81	29.776	87.2924
3	630960	3564.79	1726.38	3960.82	25.8402	88.6524
4	501190	3901.76	1620.9	4225.05	22.5594	90.1174
5	398110	4228.71	1460.77	4473.9	19.057	95.1125
6	316230	4477.27	1334.16	4671.82	16.5933	96.4626
7	251190	4617.43	1142.7	4756.73	13.9	100.518
8	199530	4805.28	1030.76	4914.59	12.1069	101.798
9	158490	4961.17	913.458	5044.56	10.4325	103.248
10	125890	5083.87	804.455	5147.13	8.99173	104.583
11	100000	5183.21	702.613	5230.62	7.71971	105.998
12	79433	5264.85	614.156	5300.55	6.65361	107.273
13	63096	5329.76	534.599	5356.5	5.72786	108.653
14	50119	5385.45	467.527	5405.71	4.96157	110.028
15	39811	5430.57	406.74	5445.79	4.28335	111.418
16	31623	5466.77	357.914	5478.47	3.74585	112.748
17	25119	5500.79	318.04	5509.98	3.30899	114.038
18	19953	5528.89	284.801	5536.22	2.94878	115.303
19	15849	5556.59	257.541	5562.55	2.65369	116.608
20	12589	5583.49	235.369	5588.45	2.41385	117.958
21	10000	5607.23	216.912	5611.42	2.21535	119.238
22	7943.3	5628.63	202.124	5632.26	2.0566	120.513
23	6309.6	5655.01	190.54	5658.21	1.92979	121.873
24	5011.9	5676.3	181.498	5679.2	1.83139	123.333
25	3981.1	5694.67	174.228	5697.33	1.75242	124.593
26	3162.3	5715.07	167.365	5717.52	1.67742	125.868
27	2511.9	5735.86	162.967	5738.17	1.62745	127.218
28	1995.3	5761.23	158.438	5763.41	1.57528	128.543
29	1584.9	5778.53	155.678	5780.62	1.54322	129.783
30	1258.9	5798.56	152.696	5800.57	1.50845	131.028
31	1000	5819.06	150.355	5821	1.4801	132.393
32	794.33	5840.52	148.952	5842.42	1.46091	133.823
33	630.96	5860.86	146.675	5862.7	1.43359	135.088
34	501.19	5880.48	145.892	5882.29	1.42119	136.393
35	398.11	5901.79	145.161	5903.57	1.40897	137.708
36	316.23	5921.97	144.43	5923.73	1.3971	139.063
37	251.19	5945.58	146.348	5947.38	1.41003	140.358
38	199.53	5964.28	147.102	5966.09	1.41285	141.628
39	158.49	5982.82	149.986	5984.7	1.43607	143.063
40	125.89	6005.54	153.565	6007.5	1.46477	144.458
41	100	6023.38	158.528	6025.47	1.50761	145.833
42	79.433	6043.07	163.809	6045.29	1.55273	147.269
43	63.096	6066.04	169.732	6068.42	1.60276	148.789
44	50.119	6073.38	184.475	6076.18	1.73979	150.289
45	39.811	6112.15	188.12	6115.04	1.76289	159.419
46	31.623	6136.84	197.365	6140.01	1.84204	161.099
47	25.119	6159.19	209.788	6162.77	1.95079	162.694
48	19.953	6188.99	228.669	6193.22	2.11598	164.609
49	15.849	6216.23	243.719	6221	2.24524	166.619
50	12.589	6247.7	260.119	6253.11	2.3841	168.689
51	10	6277.23	282.313	6283.58	2.57509	170.939
52	7.9433	6310.24	308.628	6317.79	2.80005	173.274
53	6.3096	6342.5	340.727	6351.65	3.07504	175.669
54	5.0119	6377.58	374.017	6388.54	3.3563	178.094
55	3.9811	6411.72	416.878	6425.25	3.72003	180.589
56	3.1623	6458.83	473.784	6476.18	4.19539	183.174
57	2.5119	6504.08	531.64	6525.77	4.67294	185.749
58	1.9953	6537.9	614.049	6566.68	5.36556	188.459
59	1.5849	6599.16	694.842	6635.64	6.01067	191.304
60	1.2589	6650.24	819.164	6700.5	7.02221	194.099
61	1	6709.31	946.79	6775.78	8.03231	199.079
62	0.79433	6783.15	1111.14	6873.55	9.30296	202.155
63	0.63096	6848.63	1293.47	6969.7	10.6952	205.615
64	0.50119	6926.71	1545.77	7097.09	12.58	209.475
65	0.39811	7006.9	1848.89	7246.73	14.7816	213.625
66	0.31623	7145.59	2209.54	7479.41	17.1825	218.305
67	0.25119	7236.12	2668.2	7712.37	20.2406	223.69
68	0.19953	7367.28	3195.58	8030.47	23.4489	229.875
69	0.15849	7549.89	3883.46	8490.12	27.2201	237.15
70	0.12589	7823.66	4649.59	9101.01	30.723	245.71
71	0.1	7938.96	5574.3	9700.51	35.0744	255.936

File: Z_p46_2.txt
Index	Frequency (Hz)	Z' (Ω)	-Z'' (Ω)	Z (Ω)	-Phase (°)	Time (s)
1	1000000	2926.69	2041.77	3568.52	34.901	401.344
2	794330	3229.98	1850.84	3722.69	29.8136	402.829
3	630960	3569.12	1729.36	3966.02	25.8518	404.274
4	501190	3901.16	1616.87	4222.95	22.512	405.834
5	398110	4227.25	1464.05	4473.6	19.1028	411.254
6	316230	4481.71	1323.62	4673.08	16.4539	412.604
7	251190	4613.55	1142.26	4752.85	13.9061	416.579
8	199530	4805.37	1027.82	4914.06	12.073	417.934
9	158490	4959.93	912.153	5043.11	10.4205	419.309
10	125890	5085.35	804.44	5148.58	8.989	420.559
11	100000	5178.42	702.499	5225.85	7.72553	421.994
12	79433	5261.18	611	5296.54	6.62429	423.344
13	63096	5324.93	535.482	5351.78	5.74244	424.739
14	50119	5383.1	466.634	5403.29	4.95431	426.114
15	39811	5428.69	407.281	5443.95	4.29051	427.375
16	31623	5462.59	356.072	5474.18	3.72948	428.725
17	25119	5498.05	317.388	5507.2	3.30387	430.025
18	19953	5524.46	285.306	5531.82	2.95637	431.29
19	15849	5555.1	257.448	5561.07	2.65344	432.575
20	12589	5580.39	235.374	5585.35	2.41523	433.92
21	10000	5603.65	216.498	5607.83	2.21253	435.31
22	7943.3	5628.18	202.589	5631.82	2.0615	436.58
23	6309.6	5649.67	190.046	5652.86	1.92662	437.85
24	5011.9	5671.38	180.546	5674.25	1.82337	439.23
25	3981.1	5692.7	173.443	5695.34	1.74512	440.575
26	3162.3	5713.27	167.076	5715.71	1.67505	441.845
27	2511.9	5734.53	162.976	5736.84	1.62792	443.155
28	1995.3	5756.87	158.496	5759.06	1.57705	444.57
29	1584.9	5775.63	155.626	5777.73	1.54348	445.825
30	1258.9	5797.04	153.047	5799.06	1.51231	447.075
31	1000	5814.05	150.548	5816	1.48328	448.415
32	794.33	5836.35	148.431	5838.24	1.45684	449.885
33	630.96	5857.41	147.169	5859.26	1.43927	451.205
34	501.19	5877.91	145.969	5879.73	1.42256	452.5
35	398.11	5900.95	145.129	5902.73	1.40886	453.745
36	316.23	5918.77	145.448	5920.56	1.4077	455.08
37	251.19	5938.67	145.602	5940.46	1.40447	456.505
38	199.53	5960.37	147.118	5962.18	1.41392	457.865
39	158.49	5980.62	149.983	5982.5	1.43657	459.21
40	125.89	6003.24	152.959	6005.19	1.45955	460.55
41	100	6021.02	158.239	6023.1	1.50545	461.905
42	79.433	6045.01	163.533	6047.23	1.54962	463.34
43	63.096	6064.86	169.955	6067.24	1.60518	464.815
44	50.119	6092.74	169.819	6095.1	1.59656	466.25
45	39.811	6109.46	188.277	6112.36	1.76514	475.325
46	31.623	6133.23	197.904	6136.42	1.84815	476.925
47	25.119	6160.01	209.006	6163.56	1.94327	478.57
48	19.953	6186.29	227.832	6190.48	2.10916	480.445
49	15.849	6216.74	241.977	6221.44	2.22903	482.401
50	12.589	6242.97	263.536	6248.53	2.4172	484.431
51	10	6276.14	281.66	6282.46	2.56959	486.741
52	7.9433	6310.05	309.14	6317.62	2.80478	489.056
53	6.3096	6343.32	335.928	6352.21	3.03142	491.441
54	5.0119	6373.99	374.339	6384.97	3.36107	493.796
55	3.9811	6417.22	418.016	6430.82	3.72697	496.146
56	3.1623	6448.99	461.491	6465.48	4.09312	498.716
57	2.5119	6497.37	538.353	6519.64	4.73654	501.291
58	1.9953	6565.54	619.572	6594.71	5.39088	503.991
59	1.5849	6598	727.701	6638	6.29379	506.756
60	1.2589	6665.14	796.168	6712.52	6.81185	509.711
61	1	6706.67	943.821	6772.76	8.01055	514.756
62	0.79433	6790.26	1106.18	6879.77	9.25261	517.976
63	0.63096	6846.14	1292.82	6967.14	10.6937	521.541
64	0.50119	6923.23	1543.74	7093.25	12.5701	525.451
65	0.39811	7004.49	1844.94	7243.39	14.7562	529.601
66	0.31623	7140.84	2213.23	7475.96	17.2203	534.326
67	0.25119	7226.6	2645.49	7695.6	20.1065	539.797
68	0.19953	7369.03	3166.75	8020.65	23.2551	545.957
69	0.15849	7528.03	3847.56	8454.28	27.0715	553.307
70	0.12589	7799.76	4675.79	9093.91	30.9418	561.857
71	0.1	7986.72	5536.2	9717.88	34.7287	572.067

File: Z_p46_3.txt
Index	Frequency (Hz)	Z' (Ω)	-Z'' (Ω)	Z (Ω)	-Phase (°)	Time (s)
1	1000000	2928.26	2035.11	3566	34.7989	719.565
2	794330	3221.57	1855.14	3717.53	29.9356	721.756
3	630960	3570.79	1735.88	3970.37	25.926	723.912
4	501190	3891.56	1615.25	4213.46	22.5416	726.073
5	398110	4234.2	1467.44	4481.28	19.1147	734.703
6	316230	4474.42	1324.05	4666.21	16.4843	736.669
7	251190	4612.18	1142.4	4751.56	13.9117	743.518
8	199530	4808.73	1028.96	4917.59	12.0779	745.594
9	158490	4957.9	913.9	5041.43	10.4442	747.795
10	125890	5082.88	803.318	5145.97	8.98095	749.746
11	100000	5181.3	702.692	5228.73	7.72338	751.802
12	79433	5265.46	613.966	5301.14	6.6508	753.868
13	63096	5328.34	535.269	5355.16	5.73652	755.939
14	50119	5383.91	467.439	5404.17	4.96206	758.135
15	39811	5427.18	407.935	5442.48	4.29857	760.221
16	31623	5464.32	356.765	5475.96	3.73554	762.162
17	25119	5497.77	317.458	5506.93	3.30477	765.129
18	19953	5529.24	283.984	5536.53	2.94014	767.2
19	15849	5555.88	256.771	5561.81	2.6461	769.186
20	12589	5581.93	235.184	5586.89	2.41262	771.237
21	10000	5607.99	217.115	5612.19	2.21711	773.203
22	7943.3	5629.04	202.795	5632.69	2.06328	775.174
23	6309.6	5653.26	191.013	5656.48	1.93519	777.145
24	5011.9	5674.85	181.143	5677.74	1.82828	779.241
25	3981.1	5692.61	173.061	5695.24	1.74132	781.347
26	3162.3	5715.29	167.19	5717.74	1.6756	783.478
27	2511.9	5738.01	162.925	5740.32	1.62642	785.414
28	1995.3	5756.96	158.777	5759.15	1.57982	787.545
29	1584.9	5779.91	155.845	5782.01	1.5445	789.481
30	1258.9	5800.38	152.936	5802.39	1.51034	791.382
31	1000	5822.69	150.226	5824.63	1.47791	793.528
32	794.33	5838.13	148.785	5840.02	1.45987	795.739
33	630.96	5860.26	147.018	5862.1	1.4371	797.655
34	501.19	5879.56	146.197	5881.37	1.42439	799.681
35	398.11	5903.42	145.66	5905.21	1.41342	801.607
36	316.23	5924.15	145.034	5925.93	1.40242	803.718
37	251.19	5942.87	146.077	5944.66	1.40806	805.754
38	199.53	5962.43	148.014	5964.27	1.42204	807.865
39	158.49	5983.79	150.217	5985.68	1.43805	809.861
40	125.89	6004.19	154.143	6006.17	1.47061	811.902
41	100	6025.27	159.058	6027.37	1.51217	813.898
42	79.433	6045.88	163.551	6048.09	1.54957	816.089
43	63.096	6066.85	171.42	6069.28	1.61847	818.191
44	50.119	6090.75	153.561	6092.69	1.44424	820.422
45	39.811	6113.15	187.423	6116.02	1.75608	830.238
46	31.623	6136.59	197.017	6139.75	1.83887	832.704
47	25.119	6163.15	209.549	6166.72	1.94732	834.995
48	19.953	6192.21	226.696	6196.35	2.09666	837.611
49	15.849	6214.83	242.235	6219.55	2.23208	840.182
50	12.589	6245.69	260.845	6251.14	2.39151	842.818
51	10	6278.57	284.736	6285.02	2.59661	846.014
52	7.9433	6314.82	308.801	6322.36	2.7996	848.98
53	6.3096	6344.51	338.13	6353.51	3.05069	852.001
54	5.0119	6380.39	372.835	6391.27	3.34425	855.257
55	3.9811	6420.23	419.933	6433.95	3.74226	858.418
56	3.1623	6455.14	467.575	6472.05	4.14296	861.514
57	2.5119	6497.4	528.064	6518.82	4.6464	864.75
58	1.9953	6539.86	601.394	6567.46	5.25404	868.921
59	1.5849	6596.8	692.001	6633	5.9884	872.518
60	1.2589	6658.25	801.121	6706.27	6.86086	876.094
61	1	6710.49	942.112	6776.3	7.99175	882.401
62	0.79433	6785.23	1107.25	6874.98	9.26816	886.322
63	0.63096	6859.84	1285.49	6979.25	10.6137	890.508
64	0.50119	6934.22	1545.76	7104.42	12.5668	894.934
65	0.39811	7034.04	1840.73	7270.9	14.6648	899.91
66	0.31623	7110.67	2200.6	7443.4	17.1962	905.516
67	0.25119	7244.22	2667.65	7719.78	20.216	911.687
68	0.19953	7428.46	3141.91	8065.59	22.9262	918.703
69	0.15849	7621.39	3811.55	8521.36	26.5702	926.62
70	0.12589	7819.18	4575.22	9059.38	30.3331	935.826
71	0.1	7964.42	5524.99	9693.17	34.7494	946.922

File: Z_p47_1.txt
Index	Frequency (Hz)	Z' (Ω)	-Z'' (Ω)	Z (Ω)	-Phase (°)	Time (s)
1	1000000	2156.57	1307.83	2522.15	31.2343	98.9016
2	794330	2320.8	1196.69	2611.16	27.2774	100.337
3	630960	2528.86	1121.01	2766.19	23.9071	101.722
4	501190	2731.82	1036.75	2921.93	20.7822	103.237
5	398110	2917.66	937.254	3064.5	17.8088	107.347
6	316230	3073.32	849.407	3188.54	15.4498	108.657
7	251190	3152.37	723.672	3234.37	12.9291	112.747
8	199530	3274.49	650.621	3338.5	11.2379	114.052
9	158490	3374.08	577.885	3423.21	9.71886	115.377
10	125890	3450.97	507.324	3488.06	8.3631	116.677
11	100000	3512.25	443.393	3540.13	7.19506	118.072
12	79433	3565.6	390.658	3586.93	6.25257	119.347
13	63096	3603.85	336.47	3619.53	5.33389	120.887
14	50119	3638.81	293.158	3650.6	4.60605	122.322
15	39811	3666.69	256.429	3675.64	4.00045	123.667
16	31623	3689.16	224.553	3695.99	3.4832	125.022
17	25119	3711.74	200.061	3717.12	3.08523	126.387
18	19953	3730.46	179.743	3734.79	2.75852	127.672
19	15849	3748.55	162.478	3752.07	2.48189	128.987
20	12589	3764.38	148.592	3767.31	2.26048	130.347
21	10000	3778.13	137.537	3780.63	2.08484	131.692
22	7943.3	3792.41	128.264	3794.57	1.93708	133.012
23	6309.6	3808.66	120.967	3810.58	1.81916	134.322
24	5011.9	3820.74	115.401	3822.48	1.73003	135.677
25	3981.1	3833.56	110.395	3835.14	1.64949	137.042
26	3162.3	3848.83	106.923	3850.31	1.5913	138.427
27	2511.9	3863.16	104.051	3864.56	1.54284	140.257
28	1995.3	3874.18	100.689	3875.49	1.48877	141.572
29	1584.9	3888.54	99.4942	3889.81	1.46568	142.807
30	1258.9	3899.71	98.1377	3900.95	1.44157	144.057
31	1000	3915.92	95.8346	3917.09	1.40192	145.432
32	794.33	3926.72	94.5551	3927.86	1.37941	146.772
33	630.96	3941.74	93.5764	3942.85	1.35994	148.043
34	501.19	3953.82	92.6458	3954.9	1.34231	149.408
35	398.11	3967.2	92.2161	3968.27	1.33158	150.743
36	316.23	3981.94	91.5123	3982.99	1.31653	152.148
37	251.19	3995.8	91.836	3996.86	1.3166	153.498
38	199.53	4006.89	92.3106	4007.95	1.31975	154.793
39	158.49	4019.87	94.0016	4020.97	1.33957	156.113
40	125.89	4032.18	95.2293	4033.3	1.35292	157.543
41	100	4044.95	98.3062	4046.15	1.39221	158.948
42	79.433	4058.8	100.835	4060.05	1.42314	160.333
43	63.096	4071.34	104.393	4072.67	1.4688	161.768
44	50.119	4083.87	106.932	4085.27	1.49989	163.203
45	39.811	4097.37	114.423	4098.97	1.59962	172.268
46	31.623	4111.36	121.275	4113.15	1.68959	173.863
47	25.119	4126.33	128.333	4128.32	1.78139	175.468
48	19.953	4138.9	137.24	4141.18	1.89915	177.403
49	15.849	4157.21	149.761	4159.91	2.06315	179.333
50	12.589	4175.29	164.166	4178.52	2.25162	181.418
51	10	4190.32	176.561	4194.03	2.41276	183.713
52	7.9433	4210.09	197.733	4214.73	2.689	185.993
53	6.3096	4227.42	220.816	4233.19	2.99008	188.358
54	5.0119	4247.96	249.071	4255.26	3.35558	190.853
55	3.9811	4270.01	283.177	4279.39	3.79416	193.298
56	3.1623	4298.25	326.732	4310.65	4.34699	195.888
57	2.5119	4320.2	373.068	4336.28	4.93549	198.493
58	1.9953	4351.69	430.994	4372.98	5.65618	201.083
59	1.5849	4388.25	511.699	4417.98	6.65103	203.824
60	1.2589	4412.66	605.811	4454.05	7.81723	206.704
61	1	4448.81	709.002	4504.96	9.055	211.779
62	0.79433	4502.65	836.659	4579.73	10.5263	214.954
63	0.63096	4541.46	1001.05	4650.48	12.4307	218.479
64	0.50119	4603.56	1194.14	4755.91	14.5418	222.334
65	0.39811	4662.93	1447.65	4882.48	17.2474	226.529
66	0.31623	4736.6	1731.81	5043.27	20.0836	231.364
67	0.25119	4797.49	2128.23	5248.36	23.9227	236.879
68	0.19953	4879.64	2573.1	5516.49	27.8033	243.034
69	0.15849	5006.02	3143.02	5910.9	32.1226	250.289
70	0.12589	5182.31	3790.34	6420.52	36.1817	258.925
71	0.1	5228.52	4598.48	6963	41.3316	269.08

File: Z_p47_2.txt
Index	Frequency (Hz)	Z' (Ω)	-Z'' (Ω)	Z (Ω)	-Phase (°)	Time (s)
1	1000000	2149.36	1297.08	2510.42	31.1099	384.908
2	794330	2321.87	1196.15	2611.87	27.256	386.298
3	630960	2526.22	1122.7	2764.46	23.9613	387.738
4	501190	2730.22	1041.81	2922.24	20.8861	389.278
5	398110	2916.6	935.256	3062.88	17.7793	393.383
6	316230	3067.13	846.751	3181.86	15.4334	394.713
7	251190	3151.05	723.956	3233.14	12.9392	398.728
8	199530	3274.32	649.274	3338.08	11.2158	400.118
9	158490	3372.92	574.899	3421.56	9.67286	401.503
10	125890	3449.94	506.714	3486.95	8.35564	402.778
11	100000	3511.11	443.346	3538.99	7.19662	404.203
12	79433	3562.49	386.377	3583.38	6.18994	405.458
13	63096	3602.44	336.295	3618.1	5.33322	406.808
14	50119	3638.46	293.824	3650.31	4.6169	408.233
15	39811	3665.03	255.914	3673.95	3.99425	409.548
16	31623	3687.13	224.641	3693.97	3.48647	410.858
17	25119	3710.14	200.289	3715.54	3.09008	412.238
18	19953	3728.16	179.506	3732.48	2.75659	413.628
19	15849	3745.17	162.34	3748.69	2.48201	414.908
20	12589	3762.8	148.633	3765.73	2.26205	416.193
21	10000	3776.75	137.431	3779.25	2.084	417.508
22	7943.3	3792.16	128.254	3794.33	1.93706	418.838
23	6309.6	3806.21	121.268	3808.14	1.82486	420.263
24	5011.9	3819.54	115.495	3821.29	1.73198	421.543
25	3981.1	3835.46	110.68	3837.05	1.65293	422.858
26	3162.3	3846.96	106.657	3848.44	1.58812	424.178
27	2511.9	3859.42	103.631	3860.81	1.53811	425.473
28	1995.3	3873.14	101.351	3874.46	1.49896	426.743
29	1584.9	3887.33	99.4386	3888.61	1.46532	428.039
30	1258.9	3901.33	97.6992	3902.56	1.43453	429.349
31	1000	3914.69	96.0175	3915.87	1.40504	430.629
32	794.33	3927.05	94.9393	3928.2	1.3849	432.069
33	630.96	3940.18	93.7615	3941.3	1.36317	433.829
34	501.19	3953.43	92.6212	3954.52	1.34208	435.119
35	398.11	3967.96	92.4228	3969.04	1.33431	436.369
36	316.23	3980.78	91.9155	3981.84	1.32272	437.704
37	251.19	3992.52	91.7596	3993.58	1.31659	439.039
38	199.53	4005.45	92.7374	4006.52	1.32632	440.399
39	158.49	4018.25	94.1137	4019.35	1.34171	441.809
40	125.89	4031.46	96.0382	4032.6	1.36465	443.209
41	100	4043.22	98.8844	4044.43	1.40099	444.544
42	79.433	4059.09	101.396	4060.36	1.43095	445.969
43	63.096	4069.66	105.222	4071.02	1.48107	447.449
44	50.119	4087.08	116.266	4088.73	1.62946	448.934
45	39.811	4097.44	114.731	4099.05	1.6039	458.039
46	31.623	4112.49	120.528	4114.25	1.67873	459.629
47	25.119	4127.28	128.553	4129.28	1.78402	461.254
48	19.953	4144.12	138.356	4146.42	1.91217	463.139
49	15.849	4160.1	150.347	4162.82	2.06979	465.109
50	12.589	4175.78	162.922	4178.96	2.23431	467.139
51	10	4193.03	179.078	4196.85	2.44553	469.479
52	7.9433	4211.85	199.217	4216.56	2.70802	471.754
53	6.3096	4229.97	222.545	4235.82	3.01164	474.129
54	5.0119	4249.21	250.697	4256.6	3.37645	476.574
55	3.9811	4273.18	283.986	4282.61	3.80216	478.949
56	3.1623	4300.39	330.598	4313.08	4.39604	481.54
57	2.5119	4319.49	378.506	4336.05	5.00789	484.115
58	1.9953	4353.74	438.461	4375.76	5.75081	486.825
59	1.5849	4391.11	515.677	4421.28	6.69794	489.555
60	1.2589	4426.99	593.782	4466.63	7.63936	492.46
61	1	4455.03	713.587	4511.82	9.10008	497.48
62	0.79433	4503.14	846.422	4582	10.6453	500.655
63	0.63096	4550.5	993.968	4657.79	12.3216	504.18
64	0.50119	4592.54	1199.81	4746.68	14.6413	507.98
65	0.39811	4641.93	1443.58	4861.22	17.275	512.125
66	0.31623	4735.15	1762.09	5052.39	20.4117	516.815
67	0.25119	4795.68	2102.37	5236.27	23.6721	522.325
68	0.19953	4893.56	2542.81	5514.78	27.4575	528.48
69	0.15849	5033.48	3084.76	5903.53	31.502	536.436
70	0.12589	5099.24	3787.14	6351.75	36.6008	545.021
71	0.1	5323.31	4679.35	7087.59	41.3164	555.251

File: Z_p47_3.txt
Index	Frequency (Hz)	Z' (Ω)	-Z'' (Ω)	Z (Ω)	-Phase (°)	Time (s)
1	1000000	2152.82	1306.81	2518.41	31.2587	619.857
2	794330	2317.71	1196.48	2608.32	27.3043	621.908
3	630960	2529.13	1121.96	2766.82	23.9227	624.099
4	501190	2727.78	1043.44	2920.54	20.933	626.265
5	398110	2912.06	934.048	3058.19	17.7837	633.329
6	316230	3073.44	843.187	3187.01	15.3414	635.33
7	251190	3153.58	723.98	3235.62	12.9296	642.184
8	199530	3276.84	651.298	3340.94	11.2415	644.13
9	158490	3372.04	577.647	3421.16	9.72069	646.386
10	125890	3453.01	507.543	3490.11	8.36177	648.317
11	100000	3512.19	443.249	3540.05	7.19288	650.528
12	79433	3562.08	386.069	3582.94	6.18573	652.519
13	63096	3603.82	336.797	3619.53	5.33909	654.611
14	50119	3638.06	293.354	3649.87	4.61005	656.737
15	39811	3667.04	256.912	3676.03	4.00758	658.793
16	31623	3691.13	224.141	3697.93	3.47497	660.829
17	25119	3710.44	200.158	3715.83	3.0878	662.845
18	19953	3731.52	179.851	3735.85	2.7594	664.836
19	15849	3746.24	161.711	3749.73	2.47171	666.957
20	12589	3764.53	148.654	3767.46	2.26133	668.998
21	10000	3778.92	137.169	3781.4	2.07883	670.954
22	7943.3	3794.17	128.495	3796.34	1.93966	672.895
23	6309.6	3807.82	120.876	3809.73	1.81819	674.891
24	5011.9	3820.47	115.007	3822.2	1.72425	677.062
25	3981.1	3835.53	110.625	3837.12	1.65208	679.108
26	3162.3	3850.74	106.974	3852.22	1.59127	681.104
27	2511.9	3862.11	103.916	3863.51	1.54125	683.075
28	1995.3	3875.38	101.139	3876.7	1.49496	685.076
29	1584.9	3890.24	99.3029	3891.51	1.46222	686.992
30	1258.9	3901.98	98.224	3903.21	1.442	688.938
31	1000	3915.43	96.2272	3916.61	1.40784	690.914
32	794.33	3928.49	94.8565	3929.63	1.38318	693
33	630.96	3941.48	93.8547	3942.6	1.36407	694.961
34	501.19	3956.52	92.6785	3957.6	1.34187	697.042
35	398.11	3968.45	92.1159	3969.51	1.32972	699.173
36	316.23	3981.63	91.6373	3982.68	1.31843	701.154
37	251.19	3995.29	91.7022	3996.34	1.31486	703.135
38	199.53	4007.36	92.7121	4008.43	1.32533	705.111
39	158.49	4018.56	93.7822	4019.66	1.33688	707.243
40	125.89	4033.88	96.4848	4035.03	1.37017	709.464
41	100	4046.93	98.1071	4048.12	1.38871	711.745
42	79.433	4058.34	101.153	4059.6	1.42779	713.951
43	63.096	4072.45	104.29	4073.79	1.46695	716.147
44	50.119	4095.31	102.036	4096.58	1.42725	718.208
45	39.811	4100.2	114.144	4101.79	1.59462	728.699
46	31.623	4112.47	119.48	4114.21	1.66415	731.03
47	25.119	4128.69	126.85	4130.64	1.75981	733.566
48	19.953	4141.67	139.356	4144.02	1.92711	736.212
49	15.849	4161.41	149.514	4164.1	2.05767	738.998
50	12.589	4177.43	162.152	4180.58	2.22289	741.669
51	10	4194.44	178.812	4198.25	2.44109	744.735
52	7.9433	4212.67	197.947	4217.32	2.69027	747.786
53	6.3096	4231.08	221.719	4236.88	2.9997	751.047
54	5.0119	4253.03	250.905	4260.42	3.37622	754.208
55	3.9811	4273.99	283.986	4283.41	3.80144	757.419
56	3.1623	4296.46	327.372	4308.91	4.35727	760.68
57	2.5119	4324.39	374.181	4340.55	4.94537	764.027
58	1.9953	4352.15	444.249	4374.77	5.82832	767.443
59	1.5849	4388.99	505.265	4417.98	6.56705	771.109
60	1.2589	4418.35	614.122	4460.82	7.91305	774.655
61	1	4453.63	710.415	4509.93	9.06311	781.252
62	0.79433	4502.31	844.81	4580.88	10.6274	785.128
63	0.63096	4551.54	992.868	4658.58	12.3057	789.299
64	0.50119	4590.15	1200.62	4744.57	14.6581	793.825
65	0.39811	4649.49	1450.85	4870.6	17.3303	798.861
66	0.31623	4717.99	1728.54	5024.67	20.1214	804.387
67	0.25119	4798.45	2094.76	5235.75	23.5836	810.748
68	0.19953	4917.62	2586.86	5556.51	27.7461	817.825
69	0.15849	4980.19	3106.55	5869.66	31.9551	826.241
70	0.12589	5096.66	3796.58	6355.31	36.683	835.572
71	0.1	5294.53	4685.23	7069.9	41.5063	846.443