Folder: Streamlit_cement_impedance/data/20200503 (part 4)

File: Z_p25_3.txt
Index	Frequency (Hz)	Z' (Ω)	-Z'' (Ω)	Z (Ω)	-Phase (°)	Time (s)
1	1000000	3604.32	8377.42	9119.88	66.7205	665.451
2	794330	5545.16	8918.29	10501.7	58.1277	667.841
3	630960	7626.84	9881.73	12482.7	52.3386	670.456
4	501190	9809.43	11053.5	14778.5	48.4125	673.041
5	398110	12542.7	13445.3	18387.4	46.989	675.401
6	316230	15056.6	14509.4	20909.9	43.9397	677.796
7	251190	17490.3	14871.8	22958.3	40.3742	684.086
8	199530	20277.3	15607.7	25588.5	37.5859	686.601
9	158490	22908.7	16040	27965.8	34.9987	692.896
10	125890	25840.3	16324.7	30565	32.2829	695.691
11	100000	28699.6	16431.1	33070.3	29.792	698.331
12	79433	31493.6	16319.5	35470.7	27.3925	701.231
13	63096	34273.4	16047.8	37844.4	25.0903	704.161
14	50119	36971.3	15595.9	40126.2	22.8719	706.441
15	39811	39574.9	14961	42308.4	20.7088	708.987
16	31623	41993.6	14058.6	44284.4	18.5095	711.572
17	25119	44062.1	13140.8	45979.8	16.6064	714.127
18	19953	46040	12259	47644.1	14.9101	716.627
19	15849	47810.5	11285.9	49124.5	13.2818	719.017
20	12589	49371.9	10293	50433.4	11.7762	721.357
21	10000	50728.4	9307.73	51575.3	10.3971	723.747
22	7943.3	51961.4	8438.05	52642	9.22379	726.172
23	6309.6	53013.6	7616.01	53557.8	8.17526	728.602
24	5011.9	53955.4	6868.55	54390.9	7.25476	731.117
25	3981.1	54784.4	6184.96	55132.4	6.44121	733.672
26	3162.3	55474.3	5569.9	55753.2	5.73357	735.947
27	2511.9	56118	5024.96	56342.5	5.11678	738.322
28	1995.3	56689	4547.13	56871.1	4.58599	740.782
29	1584.9	57183.3	4132.43	57332.4	4.13337	743.112
30	1258.9	57624.5	3765.32	57747.4	3.73852	745.557
31	1000	58062.8	3463.47	58166	3.41368	748.022
32	794.33	58463.7	3208.09	58551.6	3.14086	750.502
33	630.96	58829.9	2989.18	58905.8	2.90873	753.092
34	501.19	59183.6	2817.43	59250.6	2.7255	755.467
35	398.11	59457.6	2676.21	59517.8	2.57717	757.837
36	316.23	59765.9	2574.02	59821.3	2.46611	760.257
37	251.19	60034.4	2507.2	60086.7	2.39144	762.733
38	199.53	60340.3	2474.16	60391	2.34801	765.178
39	158.49	60600.1	2474.53	60650.6	2.33831	767.733
40	125.89	60888.4	2502.16	60939.8	2.3532	770.163
41	100	61142.4	2560.01	61196	2.39755	772.628
42	79.433	61445.8	2662.62	61503.5	2.48124	775.118
43	63.096	61781.6	2798.92	61845	2.59392	777.733
44	50.119	62077.5	2986.1	62149.2	2.75396	780.443
45	39.811	62386.3	3209.91	62468.8	2.94539	790.548
46	31.623	62752.7	3498.62	62850.1	3.19109	793.138
47	25.119	63153.2	3836.96	63269.7	3.47681	795.913
48	19.953	63566.2	4273.17	63709.7	3.84586	798.838
49	15.849	64035.4	4761.56	64212.2	4.25259	801.873
50	12.589	64564.6	5330.33	64784.2	4.71953	804.888
51	10	65116	5998.95	65391.7	5.26365	808.263
52	7.9433	65817.2	6778.21	66165.3	5.8799	811.738
53	6.3096	66563.8	7672.32	67004.5	6.57504	815.339
54	5.0119	67422.2	8706.91	67982	7.35846	818.844
55	3.9811	68427	9875.72	69136	8.21251	822.514
56	3.1623	69557.3	11217.9	70456.1	9.16155	826.734
57	2.5119	70841.1	12719.2	71973.9	10.1787	831.719
58	1.9953	72343.3	14426.8	73767.7	11.2781	836.464
59	1.5849	74006.8	16367.7	75795.2	12.4711	840.594
60	1.2589	75813.7	18558.4	78052.1	13.7549	844.974
61	1	77898.4	21077.4	80699.6	15.1403	850.294
62	0.79433	80348.6	23851.6	83814	16.5336	855.164
63	0.63096	82980.3	27110.3	87296.6	18.0926	861.129
64	0.50119	85832.2	30826.7	91200.1	19.7558	866.654
65	0.39811	89000.8	35429.8	95793.6	21.7067	873.145
66	0.31623	92683.6	40684.4	101220	23.6995	879.55
67	0.25119	97055.6	46140.1	107465	25.4264	886.79
68	0.19953	101502	53080.5	114544	27.6072	894.475
69	0.15849	107141	61436.9	123506	29.8308	904.17
70	0.12589	114495	69789.6	134088	31.3641	915.07
71	0.1	121404	80177	145490	33.4413	926.976

File: Z_p26_1.txt
Index	Frequency (Hz)	Z' (Ω)	-Z'' (Ω)	Z (Ω)	-Phase (°)	Time (s)
1	1000000	3646.8	9097.93	9801.61	68.1572	49.1336
2	794330	5937.08	9669.28	11346.5	58.4495	50.5336
3	630960	8383.69	10651.5	13555.1	51.7941	51.9987
4	501190	10893.5	11954	16173	47.6574	53.5337
5	398110	14018.3	14539	20196.4	46.0447	55.0187
6	316230	16820	15495.2	22869.5	42.6524	56.7338
7	251190	19489.4	15716.8	25037.1	38.8837	60.1588
8	199530	22519.8	16189.4	27735.2	35.7121	61.4589
9	158490	25465.2	16191.5	30176.8	32.4494	63.2639
10	125890	28400.3	16347.4	32769.1	29.925	64.6839
11	100000	31246.1	16082.8	35142.2	27.2356	66.2739
12	79433	34026	15613	37437.1	24.6483	67.839
13	63096	36629	14965.3	39568.2	22.2232	69.289
14	50119	39115.3	14170.5	41603	19.9141	70.664
15	39811	41433.3	13178	43478.5	17.6434	72.039
16	31623	43385.7	11970.4	45006.7	15.4245	73.4541
17	25119	44981.4	10950.8	46295.2	13.6825	74.9791
18	19953	46501.5	9948.07	47553.7	12.0753	76.5291
19	15849	47843.4	8900.7	48664.3	10.5387	78.0292
20	12589	48948.1	7952.09	49589.8	9.22763	79.6592
21	10000	49856.8	7005.8	50346.6	7.99875	81.1642
22	7943.3	50667.5	6206.54	51046.2	6.98369	82.7242
23	6309.6	51379.4	5510.9	51674.1	6.12208	84.1243
24	5011.9	51995	4883.75	52223.9	5.36589	85.5493
25	3981.1	52495.4	4338.12	52674.4	4.72407	86.9093
26	3162.3	52946.9	3863.85	53087.7	4.17381	88.3143
27	2511.9	53340.2	3455.4	53452.1	3.70646	89.7694
28	1995.3	53707	3110.93	53797.1	3.3151	91.1944
29	1584.9	54017.8	2808.85	54090.8	2.97662	92.7844
30	1258.9	54321.2	2559.02	54381.5	2.69716	94.1945
31	1000	54592.1	2349.72	54642.7	2.46456	95.6345
32	794.33	54823.4	2169.76	54866.3	2.26643	97.0945
33	630.96	55067.6	2023.96	55104.8	2.1049	98.5645
34	501.19	55305.7	1906.37	55338.6	1.97418	100.275
35	398.11	55508.2	1807.34	55537.6	1.86488	101.69
36	316.23	55726.4	1727.89	55753.1	1.77598	103.16
37	251.19	55918.1	1673.21	55943.1	1.71393	104.68
38	199.53	56129.9	1638.31	56153.8	1.67186	106.035
39	158.49	56300.2	1626.9	56323.7	1.65521	107.455
40	125.89	56481	1624.62	56504.4	1.6476	110.985
41	100	56646.3	1642.6	56670.1	1.66097	112.985
42	79.433	56804.7	1687.62	56829.7	1.70171	114.57
43	63.096	57017.4	1760.1	57044.5	1.76814	116.16
44	50.119	57203.2	1847.78	57233	1.85013	118.2
45	39.811	57422.6	1969.29	57456.3	1.96417	127.535
46	31.623	57649.2	2119.97	57688.1	2.10602	129.255
47	25.119	57861.4	2302.07	57907.2	2.27836	130.965
48	19.953	58128.9	2556.7	58185.1	2.51844	132.85
49	15.849	58404.7	2832.41	58473.3	2.77646	135.04
50	12.589	58712.7	3154.74	58797.4	3.07565	137.11
51	10	59048.8	3535.07	59154.5	3.42603	142.115
52	7.9433	59456.7	3977.19	59589.6	3.82694	144.855
53	6.3096	59899	4486.13	60066.7	4.28317	147.55
54	5.0119	60416.1	5066.45	60628.2	4.79357	150.165
55	3.9811	60982.1	5726.49	61250.4	5.36459	152.926
56	3.1623	61620.3	6471.82	61959.3	5.99564	155.526
57	2.5119	62340.7	7326.51	62769.8	6.70286	158.261
58	1.9953	63159.3	8311.27	63703.8	7.4966	162.456
59	1.5849	64072.1	9401.52	64758.2	8.34764	165.771
60	1.2589	65039.5	10689	65912	9.33291	168.731
61	1	66124.3	12176	67236	10.4334	172.156
62	0.79433	67431.6	13873.8	68844.1	11.6261	175.641
63	0.63096	68618.7	15768	70407.1	12.9414	179.351
64	0.50119	69880	18226.6	72217.9	14.6186	183.316
65	0.39811	71537.9	21110.4	74587.7	16.441	187.666
66	0.31623	73170.6	24732	77237.3	18.6755	193.676
67	0.25119	75629.7	28920.7	80970.7	20.9268	199.156
68	0.19953	77848.7	34321.9	85078.8	23.7917	205.857
69	0.15849	80667.9	40295.7	90172.3	26.5433	213.387
70	0.12589	84355.7	46886.9	96510.5	29.0663	222.037
71	0.1	87075.8	55215.2	103106	32.379	232.322

File: Z_p26_2.txt
Index	Frequency (Hz)	Z' (Ω)	-Z'' (Ω)	Z (Ω)	-Phase (°)	Time (s)
1	1000000	3661.02	9115.32	9823.04	68.1179	362.74
2	794330	5890.87	9645.01	11301.7	58.5847	364.16
3	630960	8398.95	10635.6	13552.1	51.7019	365.63
4	501190	10868.7	11755.8	16010.2	47.2453	367.1
5	398110	14022.4	14582.1	20230.3	46.121	368.645
6	316230	16834	15462.5	22857.7	42.5683	370.21
7	251190	19490.3	15640.6	24990	38.7463	373.735
8	199530	22443.5	16172.5	27663.3	35.7759	375.205
9	158490	25303.9	16366.3	30135.4	32.8944	376.731
10	125890	28329	16291.8	32679.6	29.9029	378.141
11	100000	31222.7	16008.5	35087.5	27.1451	379.716
12	79433	33920	15543.1	37311.5	24.6186	381.166
13	63096	36553.5	14901.8	39474.3	22.1793	382.751
14	50119	39009.6	14093.6	41477.4	19.864	384.331
15	39811	41296.4	13113.2	43328.3	17.6167	385.996
16	31623	43275.4	11907.7	44883.8	15.3849	387.561
17	25119	44803.1	10877	46104.6	13.6459	389.201
18	19953	46379.7	9867.6	47417.8	12.011	390.806
19	15849	47678.6	8871.42	48496.9	10.5403	392.411
20	12589	48754.6	7902.53	49390.9	9.20688	394.001
21	10000	49665.1	6958.85	50150.3	7.97609	395.586
22	7943.3	50522.1	6178.9	50898.6	6.9727	397.191
23	6309.6	51189.1	5473.31	51480.9	6.10307	398.891
24	5011.9	51799	4850.87	52025.7	5.35002	400.531
25	3981.1	52320.4	4310.92	52497.7	4.71023	402.111
26	3162.3	52759.2	3839.02	52898.7	4.16179	403.656
27	2511.9	53149.3	3436.12	53260.2	3.69904	405.116
28	1995.3	53486.9	3086.55	53575.9	3.30269	406.481
29	1584.9	53835.2	2796.14	53907.8	2.9732	407.841
30	1258.9	54127.8	2549.16	54187.8	2.69637	409.251
31	1000	54411	2335.86	54461.1	2.45819	410.741
32	794.33	54648.7	2159.05	54691.3	2.26245	412.941
33	630.96	54911	2013.6	54947.9	2.10011	414.441
34	501.19	55107.4	1894.38	55139.9	1.96883	415.886
35	398.11	55328.8	1798.53	55358	1.86182	417.166
36	316.23	55526.6	1723.23	55553.4	1.77756	418.526
37	251.19	55741.7	1671.35	55766.8	1.71743	419.931
38	199.53	55922.9	1633.2	55946.7	1.67282	421.341
39	158.49	56113.9	1617.02	56137.1	1.65063	422.826
40	125.89	56272.3	1617.97	56295.6	1.64694	424.261
41	100	56468.5	1634.86	56492.1	1.65835	425.686
42	79.433	56635.7	1679	56660.5	1.69807	427.251
43	63.096	56842.3	1745.64	56869.1	1.75901	428.821
44	50.119	57020.3	1841.81	57050.1	1.85007	430.412
45	39.811	57226.3	1960.67	57259.9	1.96228	439.567
46	31.623	57424.5	2105.45	57463	2.09979	441.197
47	25.119	57699	2297.86	57744.7	2.28059	442.932
48	19.953	57952.3	2541.71	58008.1	2.5113	444.857
49	15.849	58224.1	2808.87	58291.8	2.76194	446.977
50	12.589	58510.4	3132.74	58594.2	3.06478	449.242
51	10	58876.9	3516.43	58981.8	3.41794	451.587
52	7.9433	59276.1	3946.48	59407.4	3.80901	454.222
53	6.3096	59729.4	4451.09	59895	4.26186	456.587
54	5.0119	60220.2	5027.42	60429.7	4.77221	459.142
55	3.9811	60801.2	5677.99	61065.7	5.33516	461.832
56	3.1623	61437.5	6430.01	61773	5.9748	464.472
57	2.5119	62166.8	7275.96	62591.2	6.67548	467.152
58	1.9953	62957	8253.05	63495.6	7.46833	469.767
59	1.5849	63835.8	9329.93	64514	8.31519	472.702
60	1.2589	64791	10571.8	65647.8	9.26716	475.842
61	1	65892.4	12079.5	66990.5	10.3882	479.292
62	0.79433	67018.7	13752.1	68415.1	11.596	482.572
63	0.63096	68282.7	15791.4	70084.9	13.0216	486.388
64	0.50119	69767.7	18213	72105.8	14.6307	490.198
65	0.39811	71153.1	21281.7	74267.6	16.6518	494.533
66	0.31623	73061.3	24868.6	77177.7	18.7975	499.483
67	0.25119	75005.3	28669.4	80297.8	20.9185	505.178
68	0.19953	77555.4	33703	84562	23.4882	511.693
69	0.15849	80549.6	39540.5	89731.2	26.1456	519.158
70	0.12589	83022.4	46752.4	95281.2	29.3852	527.718
71	0.1	87513.7	56002.6	103899	32.6164	538.158

File: Z_p26_3.txt
Index	Frequency (Hz)	Z' (Ω)	-Z'' (Ω)	Z (Ω)	-Phase (°)	Time (s)
1	1000000	3646.59	9043.44	9750.97	68.0392	578.777
2	794330	5937.86	9579.51	11270.5	58.2073	581.178
3	630960	8405.52	10637.2	13557.4	51.6843	583.564
4	501190	10771.3	11904.7	16054.4	47.8613	586.12
5	398110	14029.1	14489.6	20168.4	45.9251	588.711
6	316230	16824.9	15419.8	22822.1	42.5048	591.067
7	251190	19463.4	15647.8	24973.6	38.7978	598.566
8	199530	22460.6	16113	27642.5	35.6552	600.852
9	158490	25378.1	16317.3	30171.2	32.7397	603.344
10	125890	28332.3	16241.7	32657.5	29.8238	605.735
11	100000	31086.2	15942.2	34935.7	27.1505	608.126
12	79433	33996.3	15485.1	37356.9	24.4889	610.342
13	63096	36510.6	14853.1	39416.2	22.1373	613.328
14	50119	38951.1	14044.1	41405.6	19.8272	615.624
15	39811	41222	13052.6	43239.1	17.57	619.746
16	31623	43197.9	11865.4	44797.8	15.3589	622.167
17	25119	44760.6	10819.9	46049.7	13.5894	624.483
18	19953	46242.9	9833.87	47276.9	12.0055	626.609
19	15849	47574.1	8832.62	48387.1	10.5178	628.955
20	12589	48685.9	7910.27	49324.3	9.22853	631.196
21	10000	49567.2	6940.17	50050.7	7.97047	633.527
22	7943.3	50410.9	6153.93	50785.2	6.95996	635.848
23	6309.6	51091.5	5455.7	51382	6.09511	638.069
24	5011.9	51694	4837.45	51919.9	5.34608	640.31
25	3981.1	52199.2	4295.42	52375.7	4.70422	642.641
26	3162.3	52654.1	3827.69	52793.1	4.1578	644.822
27	2511.9	53058.3	3422.73	53168.6	3.69097	647.103
28	1995.3	53372.8	3080.94	53461.6	3.30372	649.304
29	1584.9	53687.1	2785.08	53759.3	2.96962	651.47
30	1258.9	54013	2538.59	54072.7	2.6909	655.407
31	1000	54275.3	2329.4	54325.2	2.45753	657.619
32	794.33	54550.2	2155.36	54592.7	2.26267	659.84
33	630.96	54752.8	2007.83	54789.6	2.10014	662.031
34	501.19	55006.6	1885.62	55038.9	1.96333	664.392
35	398.11	55225.4	1791.19	55254.5	1.85769	666.718
36	316.23	55440.8	1718.77	55467.5	1.77571	669.094
37	251.19	55625.3	1668.98	55650.3	1.71858	671.51
38	199.53	55809.9	1631.64	55833.8	1.6746	674.001
39	158.49	55958.8	1614.66	55982.1	1.65278	676.202
40	125.89	56161.8	1615.77	56185	1.64794	678.478
41	100	56348.2	1635.57	56371.9	1.66261	680.814
42	79.433	56534.4	1676.68	56559.2	1.69876	683.5
43	63.096	56732.5	1745.08	56759.4	1.76185	685.921
44	50.119	56926.3	1838.68	56956	1.84997	688.377
45	39.811	57112.8	1956.17	57146.3	1.96167	698.523
46	31.623	57305	2102.5	57343.6	2.10122	701.079
47	25.119	57561.8	2291.76	57607.4	2.27997	703.62
48	19.953	57802.1	2535.24	57857.7	2.51142	706.601
49	15.849	58129	2815.91	58197.1	2.77338	709.422
50	12.589	58409.2	3132.06	58493.1	3.06942	712.569
51	10	58763.5	3508.11	58868.1	3.41643	715.865
52	7.9433	59171.7	3946.41	59303.1	3.81565	719.351
53	6.3096	59605.8	4450.89	59771.7	4.27047	722.647
54	5.0119	60097.5	5032.36	60307.8	4.78659	726.288
55	3.9811	60685.2	5679.98	60950.4	5.34716	729.799
56	3.1623	61323.8	6424.56	61659.4	5.98075	733.41
57	2.5119	62037.8	7275.07	62462.9	6.68843	737.131
58	1.9953	62818	8225.76	63354.2	7.4602	741.102
59	1.5849	63771.2	9321.2	64448.8	8.31583	745.278
60	1.2589	64641.2	10593.2	65503.5	9.30676	749.014
61	1	65759.6	12059.2	66856.2	10.3916	753.49
62	0.79433	66954.7	13734.8	68348.9	11.5926	757.791
63	0.63096	68292.2	15729.1	70080.2	12.9702	762.527
64	0.50119	69671.4	18207.1	72011.1	14.6455	767.514
65	0.39811	71098.4	21283.4	74215.6	16.6652	772.78
66	0.31623	73030.3	24637.9	77074.4	18.6426	778.831
67	0.25119	75193.5	28933.2	80567.9	21.0459	785.302
68	0.19953	77249.3	33611.5	84244.8	23.5141	792.723
69	0.15849	80593.6	39757.4	89866.4	26.2575	800.949
70	0.12589	83811.4	47194.8	96185.8	29.3842	810.855
71	0.1	87787.6	55175.9	103687	32.15	822.267

File: Z_p27_2.txt
Index	Frequency (Hz)	Z' (Ω)	-Z'' (Ω)	Z (Ω)	-Phase (°)	Time (s)
1	1000000	3311.11	5993.26	6847.09	61.0805	426.076
2	794330	4586.62	6272.75	7770.74	53.8258	428.127
3	630960	5981.17	6813.1	9066.02	48.7203	429.997
4	501190	7395.69	7360.15	10434	44.862	432.067
5	398110	9227.69	8505.21	12549.5	42.6669	433.707
6	316230	10864.2	8938.28	14068.6	39.445	435.112
7	251190	12389.1	8912.4	15261.7	35.7303	436.597
8	199530	14095.7	9067	16760	32.751	439.127
9	158490	15785.4	9050.14	18195.7	29.8267	440.822
10	125890	17421.7	8884.8	19556.5	27.0209	442.357
11	100000	18974.7	8578.38	20823.8	24.3275	444.272
12	79433	20405.6	8161.77	21977.4	21.8002	445.727
13	63096	21717.6	7671.63	23032.8	19.4555	447.437
14	50119	22906.9	7125.13	23989.4	17.2782	448.887
15	39811	23964.7	6543.33	24841.9	15.2718	450.467
16	31623	24868.1	5930.35	25565.5	13.4129	452.027
17	25119	25607.4	5394.88	26169.5	11.8969	453.682
18	19953	26280.6	4912.83	26735.8	10.5885	455.422
19	15849	26898.8	4469.31	27267.5	9.43368	457.392
20	12589	27420.9	4058.56	27719.6	8.4192	458.967
21	10000	27867.4	3686.69	28110.2	7.53614	460.682
22	7943.3	28294.9	3393.98	28497.8	6.83995	462.512
23	6309.6	28684.7	3144.57	28856.6	6.25607	464.282
24	5011.9	29059.8	2940.46	29208.2	5.7779	465.962
25	3981.1	29406.3	2770.11	29536.5	5.38146	467.357
26	3162.3	29729.6	2632.8	29845.9	5.06082	468.737
27	2511.9	30046	2524.28	30151.8	4.80235	471.472
28	1995.3	30353.7	2442.3	30451.8	4.60017	472.967
29	1584.9	30655.1	2379.47	30747.3	4.43844	474.412
30	1258.9	30964.5	2335.85	31052.5	4.31401	476.302
31	1000	31272.5	2307.32	31357.5	4.2197	477.952
32	794.33	31580.9	2289.58	31663.8	4.14663	480.242
33	630.96	31902	2284.16	31983.7	4.09534	482.418
34	501.19	32225.2	2285.86	32306.2	4.05741	484.848
35	398.11	32546.8	2293.71	32627.5	4.03121	486.448
36	316.23	32859.5	2306.74	32940.3	4.01559	491.378
37	251.19	33193.5	2318.64	33274.4	3.99574	493.448
38	199.53	33540	2338.05	33621.4	3.9876	495.558
39	158.49	33868.6	2354.68	33950.3	3.97703	497.548
40	125.89	34217.2	2372.45	34299.3	3.96626	499.653
41	100	34545.9	2387.48	34628.3	3.95345	501.463
42	79.433	34913.3	2400.1	34995.7	3.93259	503.838
43	63.096	35272.2	2413.02	35354.7	3.91358	505.528
44	50.119	35624	2420.88	35706.1	3.88765	507.113
45	39.811	35976.6	2424.65	36058.2	3.85562	516.688
46	31.623	36363.2	2424.18	36443.9	3.81402	518.823
47	25.119	36714.2	2419.93	36793.9	3.77106	521.988
48	19.953	37080.2	2426.79	37159.5	3.7445	523.973
49	15.849	37454	2412.13	37531.6	3.6849	526.243
50	12.589	37811.5	2398.94	37887.5	3.63026	529.173
51	10	38154.8	2377.29	38228.8	3.56528	532.738
52	7.9433	38526	2352.25	38597.8	3.49392	535.234
53	6.3096	38835	2323.69	38904.5	3.42421	538.449
54	5.0119	39162.9	2302.31	39230.5	3.36443	541.079
55	3.9811	39478.1	2283.63	39544.1	3.31061	545.044
56	3.1623	39777.1	2275.53	39842.1	3.27416	547.499
57	2.5119	40074	2283.19	40138.9	3.26087	550.179
58	1.9953	40324.6	2304.51	40390.4	3.27084	553.409
59	1.5849	40614.2	2362.8	40682.8	3.32952	556.324
60	1.2589	40865.2	2442.81	40938.1	3.42091	559.449
61	1	41084.1	2584.37	41165.4	3.59941	564.904
62	0.79433	41353.7	2751.57	41445.1	3.80671	568.374
63	0.63096	41593.5	2992.5	41701.1	4.11513	572.224
64	0.50119	41839.4	3283.35	41968	4.48709	577.179
65	0.39811	42070.2	3668.4	42229.8	4.98342	581.564
66	0.31623	42324.7	4198.21	42532.4	5.66467	586.494
67	0.25119	42668	4936.25	42952.6	6.59919	592.2
68	0.19953	42910.6	5644.41	43280.3	7.4936	599.265
69	0.15849	43349.2	6612.52	43850.7	8.67307	607.29
70	0.12589	43615.9	7874	44320.9	10.2334	616.26
71	0.1	44128.5	9604.2	45161.5	12.2785	626.94

File: Z_p27_3.txt
Index	Frequency (Hz)	Z' (Ω)	-Z'' (Ω)	Z (Ω)	-Phase (°)	Time (s)
1	1000000	3316.31	5977.07	6835.44	60.9768	695.489
2	794330	4570.34	6282.88	7769.34	53.9668	698.51
3	630960	5995.14	6783.8	9053.27	48.5316	701.096
4	501190	7417.36	7454.95	10516.3	45.1448	703.952
5	398110	9216.69	8491.43	12532	42.6547	706.648
6	316230	10857.5	8926.61	14056	39.4257	708.97
7	251190	12373	8888	15234.4	35.6911	713.747
8	199530	14104.6	9042.4	16754.3	32.6637	715.988
9	158490	15815.3	8977.75	18185.8	29.582	718.534
10	125890	17406.9	8862.66	19533.3	26.9827	721.69
11	100000	18952.7	8556.44	20794.7	24.2974	724.931
12	79433	20376.5	8141.93	21943	21.7803	727.937
13	63096	21700.6	7655.68	23011.4	19.4322	731.313
14	50119	22873.9	7110	23953.4	17.2671	734.084
15	39811	23932.4	6526.76	24806.5	15.2545	737.08
16	31623	24836.2	5910.84	25529.9	13.3869	740.046
17	25119	25555.2	5375.46	26114.5	11.8788	742.292
18	19953	26251.2	4898.91	26704.4	10.5708	744.703
19	15849	26855.1	4448.34	27221.1	9.40519	747.669
20	12589	27378.8	4049.54	27676.7	8.4135	750.385
21	10000	27810.5	3674.9	28052.2	7.5275	752.591
22	7943.3	28249.6	3384.19	28451.6	6.83125	754.937
23	6309.6	28633.8	3137.11	28805.1	6.25238	757.213
24	5011.9	29010.3	2932.5	29158.1	5.77213	759.354
25	3981.1	29332.9	2760.6	29462.5	5.37642	761.381
26	3162.3	29671.7	2625.03	29787.6	5.05575	763.387
27	2511.9	29990.5	2517.9	30096	4.7991	765.573
28	1995.3	30296.8	2437.02	30394.7	4.59887	767.559
29	1584.9	30592.4	2372.75	30684.3	4.43499	770.03
30	1258.9	30898.8	2331.27	30986.6	4.31472	771.946
31	1000	31207.5	2302.42	31292.3	4.2195	773.892
32	794.33	31514.6	2285.26	31597.3	4.1475	775.983
33	630.96	31839.3	2278.73	31920.7	4.09367	777.969
34	501.19	32159.2	2281.26	32240	4.05756	780.025
35	398.11	32482.5	2288.76	32563.1	4.03046	781.996
36	316.23	32804.6	2300	32885.1	4.01058	783.997
37	251.19	33122.9	2315.89	33203.7	3.99951	785.968
38	199.53	33481.5	2335.76	33562.8	3.99065	787.919
39	158.49	33801.6	2349.58	33883.2	3.97628	789.945
40	125.89	34139.2	2368.03	34221.2	3.96791	791.966
41	100	34499.9	2382.82	34582.1	3.951	793.972
42	79.433	34840	2394.58	34922.2	3.93179	796.113
43	63.096	35202.4	2408.84	35284.7	3.91455	798.359
44	50.119	35569.1	2413.63	35650.9	3.882	800.505
45	39.811	35898.1	2420.38	35979.6	3.85725	810.281
46	31.623	36264.4	2420.44	36345.1	3.81849	812.542
47	25.119	36655.2	2413.95	36734.6	3.7678	814.914
48	19.953	37012.4	2420.98	37091.5	3.74239	817.48
49	15.849	37364.8	2412.99	37442.6	3.69499	820.151
50	12.589	37714.8	2391.05	37790.6	3.62759	822.842
51	10	38079.4	2376.34	38153.5	3.5709	825.788
52	7.9433	38441.1	2344.53	38512.5	3.49016	828.744
53	6.3096	38763.6	2318.91	38832.9	3.42346	831.8
54	5.0119	39081.7	2294.24	39149	3.35961	834.881
55	3.9811	39393.6	2276.35	39459.3	3.30714	837.912
56	3.1623	39697.4	2267.87	39762.2	3.26969	841.073
57	2.5119	40016.1	2276.45	40080.8	3.25596	844.304
58	1.9953	40263.5	2301.1	40329.2	3.27095	847.565
59	1.5849	40540.6	2355	40609	3.32456	851.051
60	1.2589	40765.6	2439	40838.5	3.42391	854.697
61	1	41021.6	2576.24	41102.4	3.59357	858.583
62	0.79433	41290	2751.05	41381.5	3.81185	862.459
63	0.63096	41523.9	2965.01	41629.6	4.08427	866.645
64	0.50119	41766.8	3308.39	41897.7	4.52899	871.147
65	0.39811	42045	3686.15	42206.3	5.0104	875.973
66	0.31623	42278.3	4238.77	42490.2	5.72528	881.404
67	0.25119	42622.9	4876.39	42900.9	6.52671	887.495
68	0.19953	42831	5654.26	43202.6	7.52032	894.431
69	0.15849	43159.7	6621.1	43664.7	8.7217	902.252
70	0.12589	43505.5	7905.01	44217.8	10.2984	911.558
71	0.1	44032.1	9551.09	45056.1	12.2385	922.739

File: Z_p28_1.txt
Index	Frequency (Hz)	Z' (Ω)	-Z'' (Ω)	Z (Ω)	-Phase (°)	Time (s)
1	1000000	3466.48	6512.56	7377.66	61.9747	30.3403
2	794330	4865.48	6786.6	8350.5	54.3623	31.8204
3	630960	6407.84	7355.9	9755.5	48.9403	33.2854
4	501190	7925.1	8059.66	11303.3	45.4823	34.8254
5	398110	10004.5	9323.38	13675.4	42.9817	36.2354
6	316230	11818.1	9798.95	15352.1	39.6636	37.6205
7	251190	13468.5	9785	16647.7	35.9989	39.8405
8	199530	15378.5	9955.04	18319.4	32.9164	41.1255
9	158490	17224.8	9959.15	19896.7	30.036	42.4806
10	125890	19018.1	9761.56	21377	27.1704	43.7656
11	100000	20724.1	9440.42	22773	24.4906	45.1756
12	79433	22290	8987.93	24033.9	21.9606	46.5306
13	63096	23750.4	8449.1	25208.5	19.5828	48.5757
14	50119	25061.6	7848.61	26261.9	17.3891	50.0707
15	39811	26227.4	7196.49	27196.8	15.3437	51.4457
16	31623	27222.8	6506.03	27989.5	13.4411	52.7708
17	25119	28037.3	5907.7	28652.9	11.8987	54.0708
18	19953	28794.8	5375.55	29292.3	10.5745	55.5258
19	15849	29442.7	4860.19	29841.1	9.37346	56.8558
20	12589	30010.7	4400.07	30331.6	8.34108	58.1359
21	10000	30485.4	3995.87	30746.1	7.46747	59.4809
22	7943.3	30957.5	3669.97	31174.3	6.76078	60.7759
23	6309.6	31376.1	3395.01	31559.2	6.1756	62.1059
24	5011.9	31764.4	3165.66	31921.8	5.69134	64.586
25	3981.1	32125	2977.65	32262.7	5.29559	65.896
26	3162.3	32479.9	2828.52	32602.8	4.97706	67.186
27	2511.9	32805.7	2712.8	32917.7	4.7272	68.456
28	1995.3	33128.7	2622.23	33232.3	4.52568	69.7611
29	1584.9	33458.7	2558.09	33556.3	4.37205	71.0411
30	1258.9	33789	2513.02	33882.4	4.25348	72.4211
31	1000	34113.9	2487.75	34204.5	4.17089	73.7561
32	794.33	34437.1	2472.67	34525.8	4.10692	75.1212
33	630.96	34794.8	2473.61	34882.7	4.06639	76.4262
34	501.19	35125.1	2479.27	35212.5	4.03746	77.7262
35	398.11	35489.9	2493.72	35577.4	4.01932	79.0162
36	316.23	35833.1	2511.78	35921	4.00968	80.3063
37	251.19	36205.3	2532.7	36293.8	4.00154	82.4963
38	199.53	36558.9	2553.61	36648	3.99557	83.7763
39	158.49	36944.6	2575.01	37034.3	3.98702	85.1264
40	125.89	37315.6	2595.05	37405.7	3.97814	86.4964
41	100	37686.3	2611.93	37776.7	3.96467	87.8814
42	79.433	38074.5	2625.7	38164.9	3.945	89.5014
43	63.096	38452	2630.55	38541.9	3.91358	91.0115
44	50.119	38845.2	2639.15	38934.7	3.88671	92.4465
45	39.811	39240.7	2638.89	39329.3	3.84728	101.527
46	31.623	39650.5	2634.7	39737.9	3.8016	103.132
47	25.119	40042.1	2622.47	40127.9	3.74712	104.737
48	19.953	40440.9	2624.37	40526	3.71294	106.662
49	15.849	40831.8	2598.89	40914.5	3.64188	108.612
50	12.589	41220.4	2578.3	41301	3.57914	110.652
51	10	41601.8	2545.65	41679.6	3.50161	112.937
52	7.9433	41972.7	2509.4	42047.7	3.42144	115.287
53	6.3096	42330.3	2471.47	42402.4	3.34144	118.997
54	5.0119	42677.2	2439.91	42746.9	3.27211	121.597
55	3.9811	43018.9	2410.92	43086.4	3.20769	124.252
56	3.1623	43321.2	2395.25	43387.3	3.16469	126.822
57	2.5119	43588.7	2393.73	43654.3	3.14332	129.382
58	1.9953	43877.6	2420.87	43944.3	3.15799	132.387
59	1.5849	44146	2477.62	44215.5	3.21226	135.182
60	1.2589	44390	2583.62	44465.1	3.33102	138.202
61	1	44609	2744.27	44693.3	3.5203	141.567
62	0.79433	44862.2	2967.99	44960.2	3.78506	144.847
63	0.63096	45079.6	3226.65	45195	4.09406	148.368
64	0.50119	45292.5	3650.51	45439.3	4.608	152.183
65	0.39811	45528.6	4164.89	45718.7	5.22679	156.363
66	0.31623	45792.3	4882.34	46051.9	6.08584	161.148
67	0.25119	46072.3	5611.27	46412.7	6.94402	166.628
68	0.19953	46410.3	6622.94	46880.5	8.1215	172.813
69	0.15849	46744.5	7933.99	47413.1	9.63305	180.103
70	0.12589	47322.7	9646.9	48296	11.5221	188.698
71	0.1	47906.7	11262.7	49212.8	13.2298	198.908