Folder: Streamlit_cement_impedance/data/20200503

Note: README.md
# Software KDssZ version 1.0

This software tool works to analyze impedance measurements through a lumped circuital model.

## The repository contains:

- The Python module called [KDssZ.py](https://github.com/dantrica/Streamlit_cement_impedance/blob/c79735cefb679f8cb21de758db89e5011d7d15d4/KDssZ.py) contains the algorithms to optimize the electrical impedance measurements.
- The Python module called [appZ.py](https://github.com/dantrica/Streamlit_cement_impedance/blob/b421c1652a15b18d4e0220819822e362abc5bec6/appZ.py) contains the code to deploy the application on the Streamlit platform.
- All [data](https://github.com/dantrica/Streamlit_cement_impedance/tree/c79735cefb679f8cb21de758db89e5011d7d15d4/data) acquired during the experimental campaign is located in this repository Streamlit_cement_impedance/data/.
- The [Figures](https://github.com/dantrica/Streamlit_cement_impedance/tree/c79735cefb679f8cb21de758db89e5011d7d15d4/figures) folder contains an image describing the lumped circuit model.

## The left sidebar functionalities:

The user can upload the impedance measurements in format .txt. Moreover, this object contains the elements that will be presented in the left sidebar, such as i) the uploading file option, ii) the lumped circuit model, iii) Add and Remove buttons to move data in the Optimization zone, iv) Run and Reset buttons to start and clear the optimization.

## Project Description: 

$\texttt{KDssZ}$ has been developed to optimize experimental electrical impedance data to a lumped circuit model. This approach allows users to correlate the interactions among the components in the composite-electrodes, cement, nanoparticles, and pores with the measured impedance, which is analyzed across three frequency ranges: high, medium, and low. Although the software has been validated with impedance measurements from gold nanoparticles/cement-based composites, it can also be used to study the electrical properties of other cement-based composites. KDssZ is deployed on the Streamlit platform, and in line with the principles of open science, it allows researchers working on similar studies to use this tool to explore new research questions related to cement-based composites.

## Usage instructions:

The main functionalities of the software KDssZ are displayed in Figure~\ref{}, and enumerated according to the following list:

1. Push button \texttt{Browse Files} to upload \texttt{.txt} files with electrical impedance spectroscopy data.
2. Help menu explaining the format files to be received; help hints boxes to report whether a file was added previously or it is already in the optimization zone; and help tips on buttons.
3. Choosing the file data since Select tag.
4. Buttons $\texttt{Add data}$ and $\texttt{Remove}$, to add or remove data to the optimization zone.
5. Buttons $\texttt{Run}$ and $\texttt{Reset}$, to start the optimization, create the plots and return the DataFrame with the parameters.
6. Figures: wide mode and saving options.
7. T

File: Z_p18_1.txt
Index	Frequency (Hz)	Z' (Ω)	-Z'' (Ω)	Z (Ω)	-Phase (°)	Time (s)
1	1000000	2994.06	7735.15	8294.39	68.84	14.6051
2	794330	4764.12	8436.82	9689	60.5474	16.1251
3	630960	6781.94	9565.27	11725.6	54.6627	17.5751
4	501190	8814.8	10786.9	13930.5	50.7451	19.1501
5	398110	11415.3	13126.7	17396	48.9891	20.6652
6	316230	13879.7	14214.1	19866.7	45.682	22.1402
7	251190	16369.2	14738.3	22026.5	41.9989	25.3603
8	199530	19194.7	15397	24607	38.7347	26.7003
9	158490	22065.8	15768.7	27121	35.5504	28.9203
10	125890	25025.3	15762.7	29575.9	32.2056	30.2054
11	100000	28004.9	15620.4	32066.7	29.1516	31.6404
12	79433	30731.1	15078.8	34231.2	26.1358	32.9954
13	63096	33327.4	14407.1	36308.1	23.3783	34.3804
14	50119	35702.5	13506.6	38172	20.722	35.7455
15	39811	37861.5	12464.2	39860.4	18.2218	37.0605
16	31623	39609.3	11273.2	41182.4	15.8869	38.4055
17	25119	41063.2	10296.6	42334.5	14.0767	39.7155
18	19953	42411.5	9349.92	43429.9	12.4324	40.9955
19	15849	43592.9	8490.1	44412	11.0209	42.2456
20	12589	44636	7708.54	45296.7	9.79822	43.5206
21	10000	45417.3	6925.67	45942.3	8.67022	44.8506
22	7943.3	46223.2	6335.61	46655.4	7.80464	46.2256
23	6309.6	46960.7	5835.48	47321.9	7.08344	47.5057
24	5011.9	47592	5409.8	47898.5	6.48499	48.8657
25	3981.1	48223.5	5065.42	48488.8	5.99639	50.1807
26	3162.3	48791.1	4788.36	49025.5	5.60506	51.4407
27	2511.9	49341.8	4588.47	49554.7	5.31286	52.8608
28	1995.3	49899.6	4409.32	50094	5.04976	54.1908
29	1584.9	50447.9	4280.62	50629.2	4.85005	55.6908
30	1258.9	50989.2	4194.01	51161.4	4.70215	56.9558
31	1000	51528.7	4143.4	51695	4.59723	58.2759
32	794.33	52080.4	4112.05	52242.5	4.51447	60.7909
33	630.96	52653.4	4103.42	52813	4.45621	62.1059
34	501.19	53217.4	4102.43	53375.3	4.4081	63.436
35	398.11	53797.6	4117.05	53954.9	4.37623	64.686
36	316.23	54366.3	4139.06	54523.7	4.35369	65.951
37	251.19	54976.9	4169.31	55134.8	4.33686	67.351
38	199.53	55549.1	4193.59	55707.2	4.31726	68.7411
39	158.49	56188.4	4218.66	56346.5	4.29375	70.0911
40	125.89	56808.3	4241.09	56966.4	4.26956	71.5561
41	100	57421.7	4250.85	57578.8	4.23381	72.8911
42	79.433	58061.7	4260.59	58217.8	4.19687	74.2712
43	63.096	58663.1	4261.47	58817.7	4.15485	75.7512
44	50.119	59286.3	4247.95	59438.3	4.09832	85.7264
45	39.811	59884.3	4245.29	60034.5	4.055	94.8365
46	31.623	60501.9	4231.24	60649.7	4.0005	96.4766
47	25.119	61135.3	4209.73	61280	3.93913	98.1566
48	19.953	61776.6	4212.56	61920	3.90098	100.067
49	15.849	62373.1	4193.58	62514	3.84642	101.977
50	12.589	62978.8	4172.07	63116.9	3.79005	103.992
51	10	63567.1	4156.63	63702.8	3.74123	106.292
52	7.9433	64163	4153.19	64297.2	3.70352	109.542
53	6.3096	64790.6	4143.77	64923	3.65944	111.777
54	5.0119	65308.9	4155.09	65441	3.64037	114.282
55	3.9811	65897.9	4178.02	66030.2	3.62778	116.627
56	3.1623	66395.8	4215.87	66529.5	3.63318	119.242
57	2.5119	66939.9	4298.9	67077.8	3.67451	121.857
58	1.9953	67457.3	4417.29	67601.8	3.74653	124.412
59	1.5849	67977.1	4581.06	68131.2	3.8554	127.157
60	1.2589	68476	4804.84	68644.4	4.01377	130.022
61	1	68982.6	5133.83	69173.4	4.25623	133.217
62	0.79433	69534.8	5560.66	69756.8	4.57219	136.457
63	0.63096	70062.2	6024.06	70320.7	4.9143	139.952
64	0.50119	70628.1	6738.04	70948.8	5.44962	143.692
65	0.39811	71230	7584.46	71632.7	6.07786	147.853
66	0.31623	72012.6	8565.66	72520.3	6.78327	152.583
67	0.25119	72702.1	9788.93	73358.1	7.66844	157.938
68	0.19953	73533	11199.4	74381	8.65988	164.153
69	0.15849	74600.6	12940	75714.6	9.84045	171.408
70	0.12589	75787.1	14703.8	77200.3	10.9798	179.898
71	0.1	76550	17339.2	78489.1	12.7626	190.078

File: Z_p18_2.txt
Index	Frequency (Hz)	Z' (Ω)	-Z'' (Ω)	Z (Ω)	-Phase (°)	Time (s)
1	1000000	3068.68	7717.77	8305.47	68.3166	24.0582
2	794330	4845.29	8410.84	9706.65	60.0547	25.4483
3	630960	6720.73	9543.7	11672.6	54.8466	26.8433
4	501190	8826.06	10685	13858.9	50.4426	28.3033
5	398110	11391.8	13087.2	17350.7	48.9618	29.6683
6	316230	13894.5	14185.3	19856.5	45.5934	31.0734
7	251190	16325.8	14641	21929.2	41.8858	34.2134
8	199530	19141.8	15373	24550.8	38.7684	35.4984
9	158490	21910.1	15618.6	26907.2	35.4831	36.8735
10	125890	25016.6	15748.6	29560.9	32.1914	38.1185
11	100000	27899.5	15504.9	31918.4	29.0627	39.4785
12	79433	30640.8	15011.2	34120.3	26.1007	40.7485
13	63096	33198	14297	36145.7	23.2995	42.1086
14	50119	35533.7	13410.6	37980.1	20.6767	43.4636
15	39811	37673.2	12363.5	39650.1	18.1686	44.7586
16	31623	39427.1	11179	40981.3	15.8299	46.0186
17	25119	40862.8	10204.2	42117.6	14.0211	47.2837
18	19953	42187.6	9282.69	43196.8	12.4093	48.5587
19	15849	43381.4	8408.81	44188.8	10.9699	49.8337
20	12589	44368.3	7602.75	45015	9.7235	51.1787
21	10000	45183.4	6866.09	45702.1	8.64059	52.4638
22	7943.3	45996.8	6285.55	46424.3	7.78139	53.8038
23	6309.6	46702.1	5787.06	47059.2	7.06377	55.0888
24	5011.9	47367.4	5370.83	47670.9	6.46895	56.3638
25	3981.1	47972.7	5030.88	48235.7	5.98672	57.6489
26	3162.3	48545.6	4759.6	48778.3	5.59961	58.9089
27	2511.9	49119.6	4543.35	49329.3	5.28457	60.1789
28	1995.3	49671.7	4376.06	49864.1	5.03474	61.5639
29	1584.9	50206.6	4261.16	50387.1	4.85121	62.729
30	1258.9	50756.1	4177.96	50927.8	4.70566	64.084
31	1000	51286.6	4119.61	51451.8	4.59244	65.409
32	794.33	51829.1	4088.76	51990.1	4.51069	66.804
33	630.96	52414.9	4080.31	52573.5	4.45129	68.0491
34	501.19	52981.5	4083.21	53138.7	4.40699	69.3341
35	398.11	53535.7	4096.26	53692.2	4.37543	70.5941
36	316.23	54126.4	4124.45	54283.3	4.35754	71.9441
37	251.19	54729.3	4146.33	54886.2	4.33249	73.2641
38	199.53	55336.7	4172.71	55493.8	4.31227	74.5342
39	158.49	55962	4201.24	56119.5	4.29332	75.8592
40	125.89	56573.7	4220	56730.9	4.26596	77.2092
41	100	57186.6	4233.11	57343.1	4.23347	78.5392
42	79.433	57793.1	4238.87	57948.4	4.19488	79.8943
43	63.096	58436.2	4249.14	58590.4	4.1589	81.3293
44	50.119	59038	4246.63	59190.6	4.11423	82.7493
45	39.811	59697.7	4231.68	59847.5	4.05463	91.8145
46	31.623	60316	4215.77	60463.2	3.99817	93.4095
47	25.119	60953.1	4191.1	61097	3.93343	94.9946
48	19.953	61552.9	4195.58	61695.7	3.89938	96.8596
49	15.849	62175.6	4179.88	62315.9	3.84604	98.7596
50	12.589	62774.3	4163.97	62912.2	3.79501	100.705
51	10	63376.9	4150.8	63512.6	3.74717	102.945
52	7.9433	63941.5	4139.74	64075.4	3.7043	105.225
53	6.3096	64551.9	4141.34	64684.7	3.67079	107.63
54	5.0119	65102.8	4144.32	65234.6	3.64243	110.02
55	3.9811	65670	4164.47	65801.9	3.62856	112.39
56	3.1623	66223.7	4208.37	66357.2	3.63613	115.015
57	2.5119	66739.1	4287.31	66876.7	3.67562	117.6
58	1.9953	67238.7	4421.27	67383.9	3.76206	120.165
59	1.5849	67777.6	4576.82	67932	3.86315	122.98
60	1.2589	68267.1	4810.83	68436.4	4.03101	125.95
61	1	68764.4	5139.77	68956.2	4.27461	130.92
62	0.79433	69360.2	5562.03	69582.9	4.58476	133.985
63	0.63096	69839.2	6044.2	70100.3	4.94631	137.455
64	0.50119	70472.3	6731.76	70793.1	5.45653	141.21
65	0.39811	71074.8	7588.19	71478.7	6.09401	145.455
66	0.31623	71805.3	8554.3	72313.1	6.79373	150.291
67	0.25119	72552.6	9805.8	73212.3	7.69713	155.701
68	0.19953	73486.1	11044.4	74311.4	8.54716	162.581
69	0.15849	74316.3	12767.4	75405.1	9.74815	169.851
70	0.12589	75439.6	15009.7	76918.3	11.2528	178.406
71	0.1	76790.7	17124.2	78676.9	12.5712	188.786

File: Z_p19_1.txt
Index	Frequency (Hz)	Z' (Ω)	-Z'' (Ω)	Z (Ω)	-Phase (°)	Time (s)
1	1000000	2515.66	9420.31	9750.43	75.0483	52.7207
2	794330	5011.79	10736.5	11848.6	64.9768	54.5758
3	630960	7709.65	12622.7	14790.9	58.5844	56.0358
4	501190	10332.8	14310.2	17650.8	54.1686	57.6508
5	398110	14525.6	18151.9	23248.3	51.3323	59.0959
6	316230	17942.7	19620.2	26587.5	47.557	60.5009
7	251190	21408.2	20516.4	29651.9	43.7813	64.471
8	199530	25495.4	21373.8	33269.4	39.9745	65.711
9	158490	29206.1	22292.4	36741.6	37.3537	67.056
10	125890	33765.2	21728.7	40152.5	32.7622	68.296
11	100000	37714.3	21197.2	43263.1	29.3381	69.6511
12	79433	41526.6	20388.6	46261.8	26.15	70.9411
13	63096	44931.2	19226.2	48871.9	23.1662	72.2811
14	50119	48056.4	17822.6	51254.8	20.3482	73.6411
15	39811	50844.5	16321.4	53399.9	17.797	74.9212
16	31623	53006.6	14600.7	54980.7	15.4003	76.1912
17	25119	54815.9	13288.7	56403.7	13.627	77.5862
18	19953	56544.3	12047.8	57813.5	12.028	78.8612
19	15849	57974.6	10849.3	58981.1	10.5997	80.1213
20	12589	59243.5	9826.95	60053	9.41812	81.4213
21	10000	60236	8845.73	60882	8.35425	82.7663
22	7943.3	61270.9	8113.68	61805.7	7.5434	84.0913
23	6309.6	62193.4	7493.59	62643.3	6.87036	85.3963
24	5011.9	63019.9	6976.32	63404.9	6.31693	86.6514
25	3981.1	63794.5	6556.2	64130.5	5.86772	88.0214
26	3162.3	64573.8	6229.72	64873.6	5.51052	89.3714
27	2511.9	65309.7	5965.19	65581.5	5.21874	90.7514
28	1995.3	66046	5783.77	66298.8	5.00473	92.1365
29	1584.9	66765.3	5640.34	67003.1	4.82889	93.4515
30	1258.9	67474	5550.54	67701.9	4.70267	94.7665
31	1000	68216.2	5475.93	68435.6	4.58948	96.1215
32	794.33	68963.2	5441.96	69177.6	4.51192	97.4916
33	630.96	69725.9	5434.46	69937.3	4.45665	98.8966
34	501.19	70474.7	5436.48	70684.1	4.41112	100.187
35	398.11	71218.6	5452.28	71427	4.37785	101.487
36	316.23	72065	5481.24	72273.2	4.34952	102.767
37	251.19	72845.7	5511.17	73053.8	4.3265	104.052
38	199.53	73621.6	5542.9	73830	4.30562	105.397
39	158.49	74458	5560.56	74665.4	4.27094	106.722
40	125.89	75264.3	5571.54	75470.3	4.23367	108.087
41	100	76072.2	5571.45	76276	4.1888	109.457
42	79.433	76909.9	5572.68	77111.5	4.14425	110.907
43	63.096	77773.1	5616.51	77975.6	4.13054	112.472
44	50.119	78559.8	5529.08	78754.1	4.02587	113.982
45	39.811	79417.3	5515.62	79608.6	3.97287	123.037
46	31.623	80246.1	5474.26	80432.6	3.90258	124.622
47	25.119	81037.3	5421.9	81218.5	3.82774	126.187
48	19.953	81889.2	5371.25	82065.2	3.75275	128.002
49	15.849	82662.9	5309.26	82833.2	3.67494	129.982
50	12.589	83421.8	5239.69	83586.2	3.594	132.052
51	10	84215.1	5155.42	84372.7	3.50312	134.287
52	7.9433	84967.7	5086.4	85119.8	3.42579	136.617
53	6.3096	85731.4	4989.81	85876.5	3.33102	138.997
54	5.0119	86482	4909.73	86621.2	3.24929	142.442
55	3.9811	87154.3	4813.64	87287.1	3.1613	144.892
56	3.1623	87811	4730.07	87938.3	3.08334	147.367
57	2.5119	88461.4	4668.14	88584.5	3.02072	150.008
58	1.9953	89045.8	4619.37	89165.6	2.96963	152.583
59	1.5849	89640.8	4618.35	89759.7	2.9493	155.268
60	1.2589	90174.8	4672.55	90295.8	2.96622	158.098
61	1	90745	4762.74	90869.9	3.0044	161.303
62	0.79433	91313.5	4969.82	91448.6	3.1153	164.538
63	0.63096	91800.2	5191.34	91946.8	3.23665	168.013
64	0.50119	92345.2	5572.55	92513.2	3.45331	171.963
65	0.39811	92898.1	6051.54	93095	3.72708	176.113
66	0.31623	93577.6	6689.79	93816.4	4.08907	180.883
67	0.25119	94158.9	7329.47	94443.7	4.45102	186.258
68	0.19953	94917	8168.88	95267.8	4.91895	192.543
69	0.15849	95748.1	9237.29	96192.6	5.51055	199.828
70	0.12589	96714.1	10473.8	97279.6	6.18087	208.364
71	0.1	97427.7	11783.5	98137.7	6.8962	218.489

File: Z_p19_2.txt
Index	Frequency (Hz)	Z' (Ω)	-Z'' (Ω)	Z (Ω)	-Phase (°)	Time (s)
1	1000000	2826.8	9471.03	9883.89	73.3813	74.2641
2	794330	5233	10646.4	11863	63.8245	75.6492
3	630960	7955.33	12393	14726.6	57.3027	76.9992
4	501190	10506.6	13939.2	17455.3	52.993	78.5442
5	398110	14382.4	17587	22719	50.7242	80.0042
6	316230	17854.1	19109.7	26152.4	46.9455	81.3893
7	251190	21199.8	19842.7	29037.3	43.1063	87.7894
8	199530	25118.4	20726.2	32565.4	39.5274	89.8844
9	158490	29110.3	21139.6	35976.3	35.9867	91.8595
10	125890	33119.9	21099.9	39270	32.5002	93.9795
11	100000	36972	20619.1	42332.9	29.1481	95.5895
12	79433	40625.4	19809.4	45197.7	25.9943	97.3196
13	63096	43958.8	18696	47769.4	23.0404	98.9096
14	50119	47044.7	17381.8	50153.1	20.2779	100.57
15	39811	49722.6	15857.5	52190	17.6885	102.21
16	31623	51853.2	14192.8	53760.5	15.3076	103.845
17	25119	53617.5	12927.5	55153.9	13.5556	105.675
18	19953	55259.8	11694.3	56483.6	11.9489	107.39
19	15849	56678.1	10555.4	57652.6	10.5496	109.86
20	12589	57883.9	9569.81	58669.6	9.38766	111.355
21	10000	58857	8612.85	59483.9	8.32529	112.895
22	7943.3	59838.7	7894.03	60357.1	7.51517	114.335
23	6309.6	60708.3	7288.28	61144.2	6.84583	115.74
24	5011.9	61560	6798.32	61934.2	6.30187	117.18
25	3981.1	62325.2	6393.06	62652.2	5.85668	118.725
26	3162.3	63066.1	6075.69	63358.1	5.5028	120.22
27	2511.9	63762.9	5821.81	64028.1	5.21687	121.845
28	1995.3	64486.7	5636.62	64732.6	4.99538	123.355
29	1584.9	65190.2	5501.92	65422	4.82421	124.895
30	1258.9	65896.6	5412.11	66118.5	4.69518	126.34
31	1000	66594.9	5347.44	66809.3	4.59089	127.945
32	794.33	67328.9	5315.78	67538.4	4.51427	129.605
33	630.96	68041.4	5304.84	68247.8	4.45804	130.82
34	501.19	68795.4	5313.37	69000.3	4.41644	132.24
35	398.11	69545	5326.75	69748.7	4.37998	133.61
36	316.23	70365.1	5356.79	70568.7	4.35345	135.03
37	251.19	71129.1	5390.71	71333.1	4.33402	136.47
38	199.53	71925.1	5414.66	72128.6	4.30522	137.85
39	158.49	72692.8	5434.18	72895.7	4.27522	139.225
40	125.89	73487.8	5441.28	73689	4.23464	140.675
41	100	74298.4	5443.06	74497.5	4.18997	142.075
42	79.433	75105.2	5447.27	75302.5	4.14831	143.52
43	63.096	75943.7	5437.05	76138.1	4.09499	145.105
44	50.119	76729.9	5407.94	76920.2	4.03155	146.7
45	39.811	77524.5	5377.83	77710.8	3.96821	155.856
46	31.623	78334.8	5332.44	78516.1	3.89425	157.461
47	25.119	79145.6	5279.28	79321.4	3.81617	159.036
48	19.953	79902	5239.58	80073.6	3.7518	160.931
49	15.849	80691.6	5185.11	80858.1	3.67668	162.841
50	12.589	81464.5	5121.62	81625.3	3.59741	164.956
51	10	82239.5	5046.48	82394.2	3.51145	167.151
52	7.9433	82940	4955.62	83087.9	3.41932	169.481
53	6.3096	83687.8	4880.01	83830	3.33726	171.936
54	5.0119	84404.9	4789.36	84540.7	3.24764	174.331
55	3.9811	85049.5	4707.05	85179.6	3.1678	176.771
56	3.1623	85692.6	4626.84	85817.4	3.0906	179.261
57	2.5119	86315.9	4575.79	86437.1	3.03453	181.806
58	1.9953	86846.6	4538.92	86965.1	2.99176	184.541
59	1.5849	87425.7	4534.9	87543.2	2.96936	187.381
60	1.2589	88026.9	4617.58	88147.9	3.00278	190.341
61	1	88579.2	4729.05	88705.3	3.056	195.386
62	0.79433	89105.5	4908.15	89240.5	3.15281	198.461
63	0.63096	89591.6	5151.08	89739.5	3.29061	201.917
64	0.50119	90162.2	5533.95	90331.9	3.51227	205.692
65	0.39811	90728.4	6040.08	90929.3	3.80874	209.962
66	0.31623	91323.1	6609.67	91562	4.13966	214.607
67	0.25119	92051.7	7392.26	92348	4.59131	220.002
68	0.19953	92751.8	8233.82	93116.5	5.073	226.242
69	0.15849	93555.6	9289.97	94015.7	5.67082	233.552
70	0.12589	94488.3	10361.4	95054.7	6.25793	242.057
71	0.1	95210.4	11960.1	95958.7	7.15986	252.242

File: Z_p20_1.txt
Index	Frequency (Hz)	Z' (Ω)	-Z'' (Ω)	Z (Ω)	-Phase (°)	Time (s)
1	1000000	2954.79	8354.38	8861.51	70.5222	23.5772
2	794330	4942.6	9176.46	10422.9	61.6923	24.9523
3	630960	7106.07	10552.1	12721.7	56.0425	26.3673
4	501190	9304.95	11912.5	15115.9	52.0063	27.8573
5	398110	12177.8	14950.2	19282.3	50.8353	29.2173
6	316230	14969.4	16312.4	22140	47.4583	30.6074
7	251190	17778.9	16996.4	24596.1	43.7109	33.7374
8	199530	21023.3	17926.2	27628.4	40.4536	35.0324
9	158490	24468.3	18443.9	30641	37.0085	36.4175
10	125890	28002.1	18713.7	33679.7	33.7547	37.7125
11	100000	31423.8	18531.2	36480.9	30.5287	39.0425
12	79433	34728.4	18039.7	39134.3	27.4497	40.3375
13	63096	37856.6	17284.2	41615.7	24.5401	41.7126
14	50119	40709.4	16300.8	43851.7	21.822	43.0276
15	39811	43333	15100.3	45888.6	19.212	44.4376
16	31623	45579.9	13728.6	47602.5	16.7623	45.7126
17	25119	47314.9	12541.7	48948.9	14.8459	47.1027
18	19953	49007.3	11476.7	50333.2	13.1802	48.4677
19	15849	50488.1	10410.8	51550.3	11.6513	49.8427
20	12589	51746.6	9442.36	52601	10.3412	51.1227
21	10000	52788.1	8535.48	53473.7	9.18485	52.4378
22	7943.3	53792.8	7810.92	54357	8.26181	53.8228
23	6309.6	54722.1	7187.06	55192	7.48226	55.1128
24	5011.9	55547.3	6659.12	55945	6.83611	56.3828
25	3981.1	56280.3	6212.43	56622.1	6.29902	57.8229
26	3162.3	56977.4	5845.08	57276.4	5.85726	59.0879
27	2511.9	57673.2	5552.91	57939.9	5.49962	60.4779
28	1995.3	58303.2	5316.2	58545.1	5.20993	61.7929
29	1584.9	58969.1	5135.4	59192.3	4.97713	62.973
30	1258.9	59651.6	5009.45	59861.6	4.80034	64.273
31	1000	60253.7	4909.05	60453.3	4.65777	65.563
32	794.33	60917.3	4842.33	61109.4	4.54491	67.028
33	630.96	61578.7	4803.52	61765.7	4.46039	68.2981
34	501.19	62243.2	4787.65	62427.1	4.39844	69.5981
35	398.11	62909.7	4775.69	63090.7	4.34119	70.7831
36	316.23	63582.4	4782.57	63762	4.3016	72.0731
37	251.19	64245.9	4787.97	64424	4.26213	73.5332
38	199.53	64964.3	4802.76	65141.6	4.22814	74.8132
39	158.49	65643.3	4814.07	65819.6	4.19438	76.1132
40	125.89	66344.4	4819.84	66519.3	4.15517	77.5332
41	100	67016.7	4819.84	67189.8	4.11363	78.8032
42	79.433	67728.9	4810.23	67899.5	4.06243	80.2333
43	63.096	68479.5	4790.25	68646.9	4.00141	81.6683
44	50.119	69179.2	4770.5	69343.5	3.9448	82.9933
45	39.811	69868.5	4750.6	70029.8	3.88975	92.1935
46	31.623	70607	4707.27	70763.7	3.81419	94.0135
47	25.119	71284.9	4663.24	71437.3	3.74279	95.7236
48	19.953	71984	4645.21	72133.8	3.69224	97.6236
49	15.849	72647.5	4592.74	72792.5	3.6174	99.6086
50	12.589	73307.6	4542.58	73448.2	3.54586	101.694
51	10	73954.7	4486.85	74090.7	3.4719	104.809
52	7.9433	74596.5	4416.77	74727.1	3.38846	107.114
53	6.3096	75235.1	4382.01	75362.6	3.33338	109.509
54	5.0119	75855.5	4323.93	75978.6	3.26246	112.004
55	3.9811	76441.5	4282.24	76561.3	3.20635	114.524
56	3.1623	77013.8	4265.22	77131.8	3.16994	117.059
57	2.5119	77508	4259.87	77625	3.14583	119.834
58	1.9953	78045.2	4309.09	78164	3.16025	122.409
59	1.5849	78521.1	4385.51	78643.5	3.19673	125.104
60	1.2589	79003.1	4537.07	79133.3	3.28682	127.969
61	1	79511.5	4790.52	79655.7	3.44787	131.174
62	0.79433	79973.3	5085.25	80134.8	3.63836	134.404
63	0.63096	80448.5	5519.79	80637.6	3.92507	137.884
64	0.50119	80928.8	6064.79	81155.7	4.28572	141.639
65	0.39811	81462.9	6807.72	81746.9	4.77701	145.779
66	0.31623	82022.5	7815.94	82394	5.44329	150.56
67	0.25119	82843.3	8833.34	83312.9	6.08628	155.905
68	0.19953	83654.6	10130.8	84265.8	6.90504	162.14
69	0.15849	84461.4	11691.1	85266.7	7.88077	169.305
70	0.12589	85555.4	13817.7	86664	9.17437	177.89
71	0.1	87007.2	15703.8	88413.1	10.2311	188.01

File: Z_p20_2.txt
Index	Frequency (Hz)	Z' (Ω)	-Z'' (Ω)	Z (Ω)	-Phase (°)	Time (s)
1	1000000	2992.37	8373.3	8891.93	70.3346	17.9241
2	794330	4962.19	9155.02	10413.3	61.5415	19.5292
3	630960	7143.02	10462.6	12668.5	55.678	20.9392
4	501190	9401.19	11904.7	15169.2	51.7016	22.4342
5	398110	12151.9	14855.2	19192.3	50.716	23.8442
6	316230	14976.3	16269.3	22112.9	47.3696	25.2193
7	251190	17796.2	16927.1	24560.8	43.5662	27.6043
8	199530	21063.7	17835.8	27600.6	40.2564	28.9593
9	158490	24477.3	18408.9	30627.2	36.9461	30.3394
10	125890	27933.8	18599.9	33559.7	33.6579	31.6944
11	100000	31351	18435.9	36369.8	30.4576	33.1094
12	79433	34630.5	17941.5	39002.1	27.3879	34.5094
13	63096	37724.4	17180.1	41452.3	24.485	35.9395
14	50119	40620.6	16202.9	43732.9	21.7463	37.2845
15	39811	43229.3	15031.7	45768.2	19.1735	38.7845
16	31623	45403.6	13637.3	47407.5	16.718	40.1795
17	25119	47167.7	12461.7	48786.1	14.7994	41.5796
18	19953	48845.3	11394.5	50156.7	13.131	42.9596
19	15849	50294.1	10353.7	51348.7	11.6325	44.3596
20	12589	51574.3	9395.58	52423.2	10.3247	45.6896
21	10000	52611.2	8485.73	53291.1	9.1624	47.0697
22	7943.3	53634.3	7773.18	54194.7	8.24641	48.7997
23	6309.6	54489.9	7148.44	54956.8	7.47385	50.2347
24	5011.9	55323.8	6625.28	55719.1	6.82891	51.4997
25	3981.1	56111.7	6180.53	56451.1	6.28561	52.8848
26	3162.3	56819.4	5821.34	57116.8	5.84973	54.2198
27	2511.9	57488.3	5526.02	57753.2	5.49065	56.4698
28	1995.3	58143.8	5295.03	58384.4	5.20345	57.7199
29	1584.9	58820.7	5121.74	59043.2	4.97641	58.9649
30	1258.9	59489.7	4992.3	59698.8	4.79695	60.5199
31	1000	60111.7	4894.04	60310.6	4.65452	61.8499
32	794.33	60776.5	4832.84	60968.4	4.54649	63.255
33	630.96	61430.6	4793.05	61617.3	4.4614	64.55
34	501.19	62067.2	4769.07	62250.2	4.39381	65.845
35	398.11	62727.8	4764.19	62908.5	4.34328	67.03
36	316.23	63408.4	4769.05	63587.4	4.30121	68.3801
37	251.19	64115	4787.95	64293.5	4.27077	69.7101
38	199.53	64790.4	4796.42	64967.7	4.23387	71.1101
39	158.49	65483.3	4802.41	65659.2	4.19444	72.5351
40	125.89	66222.1	4806.12	66396.3	4.15101	74.1652
41	100	66880.9	4809.23	67053.6	4.11291	75.6152
42	79.433	67591.5	4800.65	67761.7	4.06258	77.0752
43	63.096	68356.5	4792.04	68524.3	4.01008	78.6102
44	50.119	69055.4	4785.15	69221	3.96394	80.1203
45	39.811	69745.8	4741.48	69906.8	3.88912	89.2154
46	31.623	70468.9	4702.04	70625.6	3.8174	90.8855
47	25.119	71168.2	4652.45	71320.1	3.74025	92.5505
48	19.953	71886.2	4635.06	72035.5	3.68919	94.4405
49	15.849	72560.6	4600.29	72706.3	3.62765	96.3906
50	12.589	73198.5	4528.89	73338.4	3.54045	98.4306
51	10	73848.8	4493.33	73985.4	3.48187	100.761
52	7.9433	74534.5	4425.37	74665.8	3.39786	103.061
53	6.3096	75174	4381.02	75301.6	3.33533	105.421
54	5.0119	75783.2	4324.96	75906.5	3.26634	107.831
55	3.9811	76388.3	4289.12	76508.7	3.21372	110.266
56	3.1623	76901.5	4264.46	77019.6	3.174	112.736
57	2.5119	77451.3	4272.04	77569	3.15711	115.306
58	1.9953	77987.1	4306.39	78105.9	3.16062	117.886
59	1.5849	78458	4395.31	78581	3.20642	120.766
60	1.2589	78974.1	4535.22	79104.2	3.28669	123.736
61	1	79465	4795.76	79609.6	3.45365	128.806
62	0.79433	79998.6	5116.09	80162.1	3.65921	132.051
63	0.63096	80460.2	5526.98	80649.8	3.92959	135.561
64	0.50119	80923.9	6133.46	81156	4.33433	139.381
65	0.39811	81426	6854.94	81714	4.81216	143.621
66	0.31623	82069	7893.7	82447.7	5.49402	148.387
67	0.25119	82872	8871.81	83345.6	6.11049	153.872
68	0.19953	83737.1	10199.7	84356	6.94478	160.142
69	0.15849	84572.1	11752.6	85384.8	7.91148	167.307
70	0.12589	85621.5	13892.2	86741.2	9.21601	175.817
71	0.1	87071.9	15805.6	88494.8	10.2885	186.022