Folder: Streamlit_cement_impedance/data/20200504 (part 4)

File: Z_p39_3.txt
Index	Frequency (Hz)	Z' (Ω)	-Z'' (Ω)	Z (Ω)	-Phase (°)	Time (s)
1	1000000	1471.69	642.084	1605.66	23.5711	529.542
2	794330	1538.91	585.054	1646.37	20.8155	532.227
3	630960	1624.45	534.398	1710.1	18.2097	534.832
4	501190	1707.14	484.361	1774.52	15.8401	537.502
5	398110	1773	424.695	1823.16	13.4705	540.202
6	316230	1841.82	378.775	1880.36	11.621	542.767
7	251190	1864.76	310.394	1890.42	9.45036	547.273
8	199530	1916.8	277.298	1936.75	8.23172	550.113
9	158490	1958.71	244.982	1973.97	7.12917	552.568
10	125890	1990.1	215.265	2001.71	6.17357	555.223
11	100000	2016.55	188.793	2025.37	5.34853	557.848
12	79433	2037.25	166.192	2044.01	4.66369	560.468
13	63096	2054.39	146.641	2059.62	4.0828	562.993
14	50119	2068.27	130.225	2072.37	3.60278	565.648
15	39811	2081.24	116.677	2084.5	3.20873	568.233
16	31623	2091.75	105.511	2094.41	2.88765	571.018
17	25119	2101.9	96.9374	2104.13	2.64055	573.453
18	19953	2111.62	90.7223	2113.56	2.46011	576.118
19	15849	2119.98	85.9623	2121.72	2.32199	578.823
20	12589	2129.63	82.7613	2131.24	2.2255	581.333
21	10000	2137.9	80.7332	2139.42	2.16263	584.093
22	7943.3	2146.71	79.9764	2148.2	2.13359	586.613
23	6309.6	2157.56	80.1615	2159.05	2.12777	589.188
24	5011.9	2166.97	81.2561	2168.49	2.14744	591.793
25	3981.1	2176.2	83.0632	2177.78	2.18586	595.653
26	3162.3	2186.37	85.6829	2188.05	2.24425	598.128
27	2511.9	2197.78	89.3055	2199.59	2.3269	600.634
28	1995.3	2209.22	93.5691	2211.2	2.42525	603.684
29	1584.9	2220.97	98.8095	2223.17	2.54737	606.904
30	1258.9	2233.19	105.03	2235.66	2.69271	609.614
31	1000	2246.66	112.335	2249.47	2.86246	612.174
32	794.33	2260.87	120.789	2264.1	3.05818	614.719
33	630.96	2277.39	130.62	2281.13	3.28261	617.479
34	501.19	2292.38	141.85	2296.76	3.54089	619.819
35	398.11	2309.76	155.05	2314.96	3.8404	622.724
36	316.23	2330.17	169.884	2336.36	4.16984	625.164
37	251.19	2350.42	186.739	2357.83	4.54257	628.384
38	199.53	2374.6	205.789	2383.5	4.95304	631.104
39	158.49	2398.68	227.226	2409.41	5.41147	634.074
40	125.89	2427.44	251.489	2440.43	5.9149	636.614
41	100	2458.84	278.656	2474.58	6.46565	639.139
42	79.433	2492.35	308.629	2511.38	7.05903	641.799
43	63.096	2531.78	342.893	2554.9	7.71294	644.514
44	50.119	2574.08	380.986	2602.12	8.41915	646.894
45	39.811	2621.05	423.923	2655.11	9.18735	658.505
46	31.623	2673.54	471.946	2714.88	10.011	662.145
47	25.119	2732.99	525.196	2782.99	10.8779	664.94
48	19.953	2799.51	586.754	2860.34	11.8374	669.145
49	15.849	2871.61	653.693	2945.08	12.8243	673.355
50	12.589	2952.31	728.664	3040.9	13.8642	677.79
51	10	3042.65	811.471	3149	14.9331	681.34
52	7.9433	3142.13	904.252	3269.66	16.0549	685.165
53	6.3096	3251.11	1008.05	3403.81	17.2267	688.495
54	5.0119	3370.76	1125.37	3553.66	18.4623	691.91
55	3.9811	3504.82	1257.42	3723.56	19.7364	695.88
56	3.1623	3649.16	1408.85	3911.67	21.1104	700.57
57	2.5119	3807.84	1580.58	4122.85	22.5426	704.055
58	1.9953	3981.22	1778.3	4360.33	24.069	707.665
59	1.5849	4172.9	2006.97	4630.45	25.6854	711.276
60	1.2589	4382.2	2272.54	4936.4	27.4106	715.151
61	1	4612.19	2585.65	5287.52	29.2755	722.061
62	0.79433	4872.42	2954.76	5698.34	31.2336	726.156
63	0.63096	5159.14	3372.13	6163.44	33.1695	730.896
64	0.50119	5469.44	3882.71	6707.47	35.3706	735.521
65	0.39811	5831.59	4476.78	7351.8	37.5127	740.831
66	0.31623	6256.27	5184.79	8125.45	39.6497	747.386
67	0.25119	6710.4	6020.65	9015.41	41.8988	753.581
68	0.19953	7239.95	7053.39	10107.8	44.2522	761.031
69	0.15849	7890.07	8172.25	11359.5	46.0064	769.407
70	0.12589	8606.64	9550.66	12856.5	47.9762	778.762
71	0.1	9436.22	11272.7	14700.9	50.0678	789.717

File: Z_p40_1.txt
Index	Frequency (Hz)	Z' (Ω)	-Z'' (Ω)	Z (Ω)	-Phase (°)	Time (s)
1	1000000	1393.52	576.787	1508.17	22.485	71.3101
2	794330	1449.96	521.763	1540.98	19.7911	72.6701
3	630960	1524.54	473.628	1596.42	17.2584	74.0751
4	501190	1596.19	428.403	1652.68	15.0236	75.6352
5	398110	1650.85	372.737	1692.41	12.7231	78.9202
6	316230	1710.09	331.054	1741.84	10.9563	80.2953
7	251190	1756.57	290.663	1780.45	9.39573	81.6053
8	199530	1774.27	240.703	1790.52	7.72576	84.0303
9	158490	1809.47	212.399	1821.89	6.69488	85.2603
10	125890	1837.59	186.424	1847.02	5.79287	86.5904
11	100000	1859.68	163.259	1866.83	5.01706	88.0054
12	79433	1877.56	143.561	1883.04	4.37239	89.3904
13	63096	1892.14	126.651	1896.37	3.82942	90.9005
14	50119	1905.02	112.515	1908.34	3.38009	92.3505
15	39811	1915.15	100.664	1917.79	3.00882	93.8005
16	31623	1925.33	91.0146	1927.48	2.70649	95.1005
17	25119	1933.5	83.9616	1935.32	2.48649	96.4306
18	19953	1942.64	78.3357	1944.21	2.30917	97.8756
19	15849	1950.27	74.201	1951.68	2.17885	99.2006
20	12589	1957.61	71.2774	1958.91	2.08524	100.521
21	10000	1965.21	69.5867	1966.45	2.02795	101.866
22	7943.3	1974.29	68.7811	1975.49	1.99528	103.576
23	6309.6	1981.76	68.8011	1982.95	1.98835	105.096
24	5011.9	1989.78	69.4664	1990.99	1.99947	106.651
25	3981.1	1999.4	70.8918	2000.65	2.03066	107.996
26	3162.3	2007.65	72.9088	2008.97	2.07981	109.281
27	2511.9	2016.24	75.5456	2017.66	2.14579	110.671
28	1995.3	2025.65	78.8167	2027.19	2.22821	112.021
29	1584.9	2036.8	82.796	2038.48	2.32779	113.241
30	1258.9	2046.62	87.7001	2048.5	2.45369	114.526
31	1000	2057.79	93.3314	2059.9	2.59688	116.286
32	794.33	2070.45	100.007	2072.86	2.76535	117.671
33	630.96	2082.48	107.749	2085.26	2.96187	119.006
34	501.19	2095.84	116.892	2099.1	3.19228	120.351
35	398.11	2109.99	127.309	2113.83	3.45282	121.676
36	316.23	2126.98	139.445	2131.55	3.75094	123.016
37	251.19	2143.61	153.142	2149.07	4.08633	124.331
38	199.53	2162.46	168.655	2169.02	4.45961	125.611
39	158.49	2183.64	186.057	2191.55	4.87011	126.991
40	125.89	2207.19	205.577	2216.75	5.32115	128.426
41	100	2232.57	227.424	2244.12	5.81647	129.906
42	79.433	2259.54	251.377	2273.48	6.34814	131.391
43	63.096	2291.99	278.53	2308.85	6.9288	132.871
44	50.119	2328.42	309.246	2348.86	7.5654	142.861
45	39.811	2367.66	342.644	2392.33	8.23459	151.957
46	31.623	2410.31	380.477	2440.16	8.97034	153.747
47	25.119	2456.77	422.869	2492.9	9.76628	155.497
48	19.953	2510.89	472.1	2554.89	10.6485	157.462
49	15.849	2567.71	525.109	2620.86	11.5579	159.517
50	12.589	2634.45	586.76	2699	12.5563	161.622
51	10	2704.35	653.514	2782.19	13.5853	164.087
52	7.9433	2784.03	728.574	2877.78	14.6653	166.537
53	6.3096	2873.2	812.487	2985.87	15.7899	169.022
54	5.0119	2969.59	908.287	3105.39	17.0069	171.667
55	3.9811	3078.77	1016.3	3242.17	18.268	174.152
56	3.1623	3195.38	1136.39	3391.43	19.5772	176.832
57	2.5119	3324.09	1273.66	3559.74	20.9648	179.432
58	1.9953	3463.82	1433.65	3748.79	22.4843	182.057
59	1.5849	3613.43	1613.91	3957.48	24.0676	187.847
60	1.2589	3776.79	1823.79	4194.09	25.7756	190.697
61	1	3961.76	2074.05	4471.83	27.6328	195.927
62	0.79433	4162.36	2368.42	4789.01	29.6403	199.097
63	0.63096	4388.81	2709.48	5157.81	31.6895	202.748
64	0.50119	4629.2	3115.78	5580.11	33.9434	206.748
65	0.39811	4889.71	3617.78	6082.57	36.4968	211.073
66	0.31623	5199.9	4197.44	6682.62	38.911	215.878
67	0.25119	5513.05	4919.85	7389.09	41.7458	221.433
68	0.19953	5893.48	5758.58	8239.8	44.3367	227.618
69	0.15849	6333.05	6790.67	9285.51	46.997	234.988
70	0.12589	6905.58	8022.18	10585	49.2778	243.663
71	0.1	7451.84	9410.3	12003.5	51.6249	253.923

File: Z_p40_2.txt
Index	Frequency (Hz)	Z' (Ω)	-Z'' (Ω)	Z (Ω)	-Phase (°)	Time (s)
1	1000000	1392.31	576.617	1506.99	22.4966	348.194
2	794330	1450.48	521.717	1541.45	19.7829	349.649
3	630960	1525.17	475.156	1597.47	17.304	351.119
4	501190	1597.1	428.228	1653.51	15.0096	352.659
5	398110	1651.8	372.823	1693.35	12.719	354.099
6	316230	1710.98	331.103	1742.72	10.9523	355.559
7	251190	1757.27	290.692	1781.15	9.39293	356.954
8	199530	1774.67	240.883	1790.94	7.72973	358.424
9	158490	1811.13	212.575	1823.56	6.69425	359.854
10	125890	1837.85	186.398	1847.28	5.79123	361.189
11	100000	1860.41	163.473	1867.58	5.02164	362.669
12	79433	1878.15	143.707	1883.64	4.37546	364.069
13	63096	1893.34	126.614	1897.57	3.82588	365.724
14	50119	1906.31	112.618	1909.63	3.38092	367.184
15	39811	1916.3	100.71	1918.94	3.00838	368.669
16	31623	1925.37	90.9577	1927.51	2.70475	370.054
17	25119	1934.22	83.6925	1936.03	2.47761	371.409
18	19953	1942.81	78.3326	1944.39	2.30887	372.784
19	15849	1950.6	74.2608	1952.01	2.18024	374.149
20	12589	1958.02	71.3998	1959.32	2.08838	375.52
21	10000	1966.34	69.6511	1967.57	2.02867	377.02
22	7943.3	1974.29	68.8341	1975.49	1.99682	378.37
23	6309.6	1982.67	68.8508	1983.86	1.98887	379.935
24	5011.9	1991.06	69.6254	1992.28	2.00276	381.28
25	3981.1	1998.68	70.9348	1999.94	2.03262	382.645
26	3162.3	2008.82	72.9198	2010.15	2.07891	384.02
27	2511.9	2018.23	75.5984	2019.64	2.14517	385.44
28	1995.3	2027.48	78.9285	2029.02	2.22936	386.79
29	1584.9	2037.78	82.8939	2039.46	2.32943	388.13
30	1258.9	2048.36	87.71	2050.24	2.45188	389.44
31	1000	2058.39	93.29	2060.5	2.59497	390.845
32	794.33	2070.29	100.01	2072.71	2.76566	392.34
33	630.96	2082.56	107.816	2085.35	2.9636	393.635
34	501.19	2096.82	116.948	2100.08	3.19231	395.015
35	398.11	2111.36	127.321	2115.19	3.45093	396.435
36	316.23	2126.93	139.402	2131.49	3.74988	397.895
37	251.19	2144.58	153.344	2150.05	4.08988	399.315
38	199.53	2163.84	168.839	2170.42	4.46161	400.645
39	158.49	2184.95	186.382	2192.89	4.87566	402.01
40	125.89	2207.12	205.692	2216.69	5.32428	403.47
41	100	2233.46	227.476	2245.01	5.81548	405
42	79.433	2262.18	251.857	2276.16	6.3528	406.46
43	63.096	2293.43	278.756	2310.31	6.93005	407.985
44	50.119	2330.44	309.599	2350.92	7.56744	417.84
45	39.811	2368.57	343.079	2393.29	8.24175	426.905
46	31.623	2411.24	381.215	2441.19	8.98405	428.59
47	25.119	2458.68	423.509	2494.89	9.77334	430.281
48	19.953	2513.02	471.803	2556.93	10.6331	432.176
49	15.849	2571.15	525.12	2624.22	11.5431	434.131
50	12.589	2635.53	586.608	2700.02	12.5482	436.241
51	10	2705.31	653.386	2783.1	13.578	438.611
52	7.9433	2787.07	729.2	2880.88	14.662	441.041
53	6.3096	2875.75	814.06	2988.75	15.8056	443.476
54	5.0119	2973.8	909.535	3109.78	17.0062	446.061
55	3.9811	3079.91	1015.33	3242.95	18.2454	448.581
56	3.1623	3192.42	1134.99	3388.18	19.5717	452.321
57	2.5119	3323.4	1274.73	3559.49	20.9849	454.821
58	1.9953	3462.15	1432.11	3746.66	22.4723	457.531
59	1.5849	3618.31	1615.44	3962.55	24.059	460.361
60	1.2589	3778.95	1825.29	4196.68	25.7812	463.446
61	1	3960.63	2076.34	4471.89	27.6655	466.836
62	0.79433	4170.64	2369.41	4796.7	29.6016	470.201
63	0.63096	4380.83	2703.32	5147.78	31.6778	473.821
64	0.50119	4617.96	3122.58	5574.59	34.0658	477.706
65	0.39811	4881.58	3605.09	6068.49	36.4462	482.036
66	0.31623	5174.07	4202.98	6666.04	39.0875	486.962
67	0.25119	5546.43	4902.76	7402.7	41.4751	492.482
68	0.19953	5942.29	5761.49	8276.81	44.115	498.782
69	0.15849	6398.36	6769.4	9314.71	46.614	506.197
70	0.12589	6859.56	7960.29	10508.1	49.2478	514.777
71	0.1	7465.2	9518.55	12096.8	51.8936	525.042

File: Z_p40_3.txt
Index	Frequency (Hz)	Z' (Ω)	-Z'' (Ω)	Z (Ω)	-Phase (°)	Time (s)
1	1000000	1395.71	575.506	1509.71	22.4083	559.477
2	794330	1450.35	522.323	1541.54	19.8057	561.778
3	630960	1524.83	474.054	1596.82	17.2699	564.099
4	501190	1596.7	429.397	1653.43	15.0523	566.65
5	398110	1652.07	372.892	1693.63	12.7193	569.076
6	316230	1711.71	331.282	1743.47	10.9535	571.452
7	251190	1758.08	290.965	1781.99	9.39734	573.758
8	199530	1775.48	240.922	1791.75	7.72751	576.164
9	158490	1811.31	212.619	1823.75	6.69495	578.485
10	125890	1840.32	186.651	1849.76	5.79131	580.911
11	100000	1861.31	163.42	1868.47	5.01762	583.252
12	79433	1879.54	143.773	1885.03	4.37425	585.458
13	63096	1893.63	126.804	1897.87	3.831	587.744
14	50119	1906.74	112.597	1910.07	3.3795	589.99
15	39811	1918.27	100.834	1920.92	3.00899	592.286
16	31623	1926.6	91.0693	1928.75	2.70633	594.477
17	25119	1935.63	83.9984	1937.45	2.48484	596.673
18	19953	1944.1	78.3821	1945.68	2.30879	598.904
19	15849	1951.71	74.2456	1953.13	2.17855	601.166
20	12589	1960.1	71.4319	1961.4	2.08711	603.467
21	10000	1967.21	69.5809	1968.44	2.02573	605.793
22	7943.3	1976.07	68.8871	1977.27	1.99656	608.114
23	6309.6	1983.5	68.9096	1984.69	1.98974	610.325
24	5011.9	1992.61	69.686	1993.83	2.00295	612.716
25	3981.1	2001.6	71.0356	2002.86	2.03254	614.977
26	3162.3	2009.2	72.9369	2010.52	2.07901	617.123
27	2511.9	2019.04	75.6439	2020.46	2.1456	619.544
28	1995.3	2028.18	78.8456	2029.71	2.22625	621.77
29	1584.9	2038.68	82.8357	2040.36	2.32676	624.121
30	1258.9	2049.14	87.6256	2051.01	2.4486	626.347
31	1000	2061.24	93.3302	2063.35	2.59251	628.713
32	794.33	2072.59	100.058	2075.01	2.7639	630.989
33	630.96	2084.64	107.882	2087.43	2.96247	633.075
34	501.19	2098.85	116.933	2102.1	3.18881	635.256
35	398.11	2112.82	127.383	2116.66	3.45021	637.242
36	316.23	2129.15	139.506	2133.71	3.74877	639.243
37	251.19	2145.97	153.22	2151.44	4.08392	641.509
38	199.53	2165.36	168.827	2171.93	4.45817	643.8
39	158.49	2186.86	186.438	2194.79	4.8729	646.266
40	125.89	2210.08	205.818	2219.65	5.32041	649.172
41	100	2234.42	227.637	2245.98	5.81709	651.288
42	79.433	2263.49	251.878	2277.46	6.34969	653.444
43	63.096	2295.65	279.212	2312.57	6.93461	655.871
44	50.119	2331.96	309.522	2352.42	7.56069	667.368
45	39.811	2369.68	343.18	2394.4	8.24035	677.519
46	31.623	2414.2	381.274	2444.12	8.9746	680.155
47	25.119	2460.75	423.614	2496.95	9.76764	682.826
48	19.953	2514.21	472.503	2558.23	10.6436	685.812
49	15.849	2571.03	525.828	2624.25	11.5587	688.743
50	12.589	2637.2	586.78	2701.69	12.544	691.729
51	10	2709.15	653.61	2786.88	13.564	694.925
52	7.9433	2788.42	729.693	2882.31	14.6647	698.136
53	6.3096	2877.26	813.744	2990.12	15.7919	701.632
54	5.0119	2975.22	910.314	3111.37	17.0123	704.923
55	3.9811	3082.9	1016.93	3246.29	18.2557	708.449
56	3.1623	3201.03	1137	3396.96	19.5549	711.926
57	2.5119	3328.45	1275.09	3564.32	20.9613	715.297
58	1.9953	3470.89	1435.17	3755.9	22.4645	718.983
59	1.5849	3619.33	1615.09	3963.34	24.0483	725.1
60	1.2589	3784.07	1826.51	4201.82	25.7658	728.711
61	1	3964.75	2076.92	4475.8	27.6476	732.897
62	0.79433	4170.54	2366.96	4795.41	29.5768	737.023
63	0.63096	4393.57	2707.15	5160.63	31.6398	741.604
64	0.50119	4630.49	3112.98	5579.61	33.9121	746.46
65	0.39811	4901.87	3609.42	6087.38	36.3655	751.616
66	0.31623	5182.09	4212.43	6678.22	39.1071	757.377
67	0.25119	5524.49	4930.43	7404.67	41.7479	763.744
68	0.19953	5947.67	5758.56	8278.63	44.0745	771.035
69	0.15849	6374.12	6807.03	9325.51	46.8811	779.201
70	0.12589	6906.25	8035.91	10595.9	49.3235	788.582
71	0.1	7529.68	9459.42	12090.4	51.4803	799.688

File: Z_p41_1.txt
Index	Frequency (Hz)	Z' (Ω)	-Z'' (Ω)	Z (Ω)	-Phase (°)	Time (s)
1	1000000	1536.58	642.059	1665.32	22.6776	33.7654
2	794330	1600.34	580.636	1702.42	19.9418	35.4454
3	630960	1683.89	526.914	1764.4	17.3757	36.8204
4	501190	1764.31	474.337	1826.96	15.0482	38.2705
5	398110	1827.73	409.089	1872.95	12.6162	39.8055
6	316230	1892.31	363.028	1926.82	10.8599	41.2805
7	251190	1910.57	296.252	1933.41	8.81406	42.6556
8	199530	1962.27	263.986	1979.95	7.66203	44.0706
9	158490	1999.9	232.178	2013.34	6.62209	46.3906
10	125890	2030.07	203.485	2040.25	5.72392	47.6957
11	100000	2054.17	178.003	2061.87	4.95255	49.0557
12	79433	2074.21	156.157	2080.08	4.3054	50.4357
13	63096	2089.82	137.387	2094.33	3.76127	51.8457
14	50119	2103.18	121.721	2106.7	3.31228	53.3258
15	39811	2114.28	108.688	2117.07	2.94279	54.7558
16	31623	2124.11	97.9692	2126.36	2.64076	56.1758
17	25119	2133.85	90.1309	2135.75	2.41866	57.5008
18	19953	2142.18	83.8921	2143.82	2.24267	58.8659
19	15849	2150.76	79.3836	2152.23	2.1138	60.1459
20	12589	2158.65	76.0576	2159.99	2.01792	61.4409
21	10000	2167.11	74.2076	2168.38	1.96119	62.9059
22	7943.3	2176.52	73.3921	2177.76	1.93127	64.316
23	6309.6	2184.81	73.3143	2186.04	1.92191	65.666
24	5011.9	2193.13	73.9271	2194.38	1.93062	68.001
25	3981.1	2202.51	75.2214	2203.8	1.95604	69.3261
26	3162.3	2212.33	77.3306	2213.68	2.00193	70.7211
27	2511.9	2221.73	79.9441	2223.17	2.06077	72.0911
28	1995.3	2231.89	83.2759	2233.44	2.13682	73.4111
29	1584.9	2243.01	87.2938	2244.7	2.22873	74.6761
30	1258.9	2254.13	92.3107	2256.02	2.34505	76.0162
31	1000	2265.86	97.6208	2267.96	2.46697	77.4362
32	794.33	2278.55	104.21	2280.93	2.61861	78.9362
33	630.96	2292.69	111.836	2295.41	2.79264	80.3563
34	501.19	2306.51	120.693	2309.67	2.9954	81.8463
35	398.11	2321.85	130.809	2325.54	3.22453	83.1863
36	316.23	2337.87	142.56	2342.21	3.48949	84.4063
37	251.19	2355.4	155.699	2360.54	3.78192	85.7764
38	199.53	2374.62	170.898	2380.77	4.11639	87.0114
39	158.49	2397.73	187.605	2405.06	4.47387	88.3714
40	125.89	2420.98	206.433	2429.77	4.87372	89.7264
41	100	2447.72	227.457	2458.26	5.30902	91.1215
42	79.433	2476.73	250.912	2489.41	5.78477	92.6015
43	63.096	2507.93	276.289	2523.1	6.28671	94.1815
44	50.119	2546.32	305.093	2564.53	6.83246	104.082
45	39.811	2585.54	335.947	2607.27	7.40314	113.107
46	31.623	2628.87	370.921	2654.91	8.03115	115.922
47	25.119	2677.33	409.491	2708.47	8.69585	117.562
48	19.953	2728.14	452.686	2765.44	9.42138	119.522
49	15.849	2788.4	500.687	2833	10.1796	121.532
50	12.589	2850.83	554.643	2904.29	11.0096	123.492
51	10	2918.08	614.515	2982.08	11.8921	125.812
52	7.9433	2993.88	680.312	3070.2	12.8022	128.162
53	6.3096	3079.98	756.941	3171.63	13.8075	130.517
54	5.0119	3171.18	840.836	3280.76	14.8502	132.952
55	3.9811	3273.67	934.007	3404.3	15.9239	135.457
56	3.1623	3385.39	1040.71	3541.74	17.0881	138.452
57	2.5119	3505.77	1161.27	3693.09	18.3272	141.157
58	1.9953	3635.55	1294.47	3859.13	19.5988	147.157
59	1.5849	3779.63	1449.8	4048.15	20.9859	149.958
60	1.2589	3932.66	1626.34	4255.68	22.4674	153.388
61	1	4098.66	1837.03	4491.51	24.1421	157.128
62	0.79433	4287.01	2081.38	4765.56	25.8969	160.503
63	0.63096	4476.77	2361.28	5061.33	27.8095	164.158
64	0.50119	4678.23	2717.14	5410.05	30.1482	167.963
65	0.39811	4902.04	3121.52	5811.53	32.4882	172.293
66	0.31623	5158.6	3648.95	6318.7	35.2738	177.053
67	0.25119	5463.12	4225.22	6906.39	37.7187	182.558
68	0.19953	5808.58	4952.39	7633.2	40.4509	188.838
69	0.15849	6172.57	5812.73	8478.71	43.2803	196.133
70	0.12589	6559.79	6910.96	9528.49	46.4933	204.649
71	0.1	7151.09	8170.45	10857.9	48.8063	214.799

File: Z_p41_2.txt
Index	Frequency (Hz)	Z' (Ω)	-Z'' (Ω)	Z (Ω)	-Phase (°)	Time (s)
1	1000000	1538.23	644.667	1667.86	22.7384	360.98
2	794330	1599.58	579.649	1701.36	19.9193	362.585
3	630960	1685.39	526.569	1765.73	17.3504	364.26
4	501190	1764.69	474.675	1827.42	15.0553	365.88
5	398110	1827.37	408.804	1872.54	12.6101	367.48
6	316230	1893.3	363.023	1927.79	10.8542	368.825
7	251190	1910.49	296.063	1933.29	8.8089	370.285
8	199530	1960.67	263.637	1978.31	7.65822	371.795
9	158490	2000.35	232.207	2013.78	6.62146	373.23
10	125890	2031.02	203.343	2041.17	5.71733	374.676
11	100000	2054.34	177.766	2062.02	4.94559	376.281
12	79433	2074.08	156.121	2079.95	4.30468	377.741
13	63096	2089.28	137.59	2093.81	3.76777	379.351
14	50119	2102.88	121.683	2106.4	3.31172	381.046
15	39811	2115	108.615	2117.79	2.93982	382.631
16	31623	2125	97.971	2127.26	2.6397	384.246
17	25119	2132.71	90.0843	2134.62	2.41869	385.771
18	19953	2141.74	83.9096	2143.38	2.2436	387.371
19	15849	2150.18	79.2776	2151.64	2.11155	388.831
20	12589	2159.16	76.1439	2160.51	2.01973	390.301
21	10000	2167.72	74.0944	2168.98	1.95766	391.826
22	7943.3	2174.71	73.2878	2175.94	1.93014	393.271
23	6309.6	2184.46	73.2927	2185.69	1.92166	394.831
24	5011.9	2193.02	73.9222	2194.26	1.93059	396.286
25	3981.1	2203.16	75.4742	2204.45	1.96203	397.651
26	3162.3	2212.23	77.3456	2213.58	2.00241	399.111
27	2511.9	2222.18	80.0012	2223.62	2.06182	400.561
28	1995.3	2232.69	83.3416	2234.24	2.13774	402.036
29	1584.9	2242.39	87.3023	2244.09	2.22955	403.286
30	1258.9	2254.26	92.004	2256.13	2.33714	404.526
31	1000	2266.06	97.669	2268.16	2.46797	406.006
32	794.33	2278.66	104.205	2281.04	2.61836	407.616
33	630.96	2291.37	111.725	2294.09	2.79147	409.126
34	501.19	2306.45	120.762	2309.6	2.99719	410.596
35	398.11	2321.93	130.876	2325.62	3.22606	412.026
36	316.23	2337.99	142.408	2342.32	3.48561	413.436
37	251.19	2355.6	155.852	2360.75	3.7853	414.951
38	199.53	2374.75	170.765	2380.89	4.11299	416.436
39	158.49	2396.88	187.663	2404.21	4.47683	417.896
40	125.89	2420.74	206.389	2429.52	4.87318	419.451
41	100	2447.01	227.25	2457.54	5.30575	420.886
42	79.433	2475.5	250.584	2488.15	5.78013	422.381
43	63.096	2506.97	276.232	2522.15	6.2878	423.961
44	50.119	2544.79	304.691	2562.96	6.8276	434.222
45	39.811	2584	336.275	2605.79	7.41465	443.367
46	31.623	2629.43	370.887	2655.46	8.02874	445.172
47	25.119	2676.74	410.08	2707.97	8.71007	446.992
48	19.953	2726.77	453.341	2764.2	9.43942	449.047
49	15.849	2786.3	501.265	2831.03	10.1986	451.127
50	12.589	2848.74	554.499	2902.2	11.0147	453.257
51	10	2918.34	613.915	2982.21	11.8798	455.662
52	7.9433	2993.45	680.691	3069.86	12.8109	458.142
53	6.3096	3078.72	758.351	3170.75	13.8376	460.757
54	5.0119	3172.26	841.643	3282.01	14.859	463.172
55	3.9811	3270.94	934.396	3401.78	15.9429	465.697
56	3.1623	3384.11	1041.07	3540.63	17.0998	468.217
57	2.5119	3508.44	1160.45	3695.38	18.3022	470.872
58	1.9953	3633.96	1294.39	3857.61	19.6056	475.042
59	1.5849	3778.42	1448.49	4046.56	20.9748	477.772
60	1.2589	3932.11	1625.72	4254.93	22.4625	480.702
61	1	4097.65	1836.41	4490.34	24.1402	484.028
62	0.79433	4287.57	2079.61	4765.3	25.8749	487.218
63	0.63096	4476.24	2369.54	5064.72	27.895	490.838
64	0.50119	4682.6	2717.9	5414.21	30.132	494.793
65	0.39811	4907.97	3121.77	5816.67	32.4589	499.293
66	0.31623	5155.77	3630.47	6305.73	35.1516	504.278
67	0.25119	5481.71	4245.18	6933.31	37.7551	509.748
68	0.19953	5801.7	4992.03	7653.76	40.7101	516.168
69	0.15849	6199.24	5868.79	8536.58	43.4315	523.563
70	0.12589	6634.24	6876.55	9555.1	46.0274	532.438
71	0.1	7046.31	8172.74	10790.9	49.233	542.829

File: Z_p41_3.txt
Index	Frequency (Hz)	Z' (Ω)	-Z'' (Ω)	Z (Ω)	-Phase (°)	Time (s)
1	1000000	1539.55	643.235	1668.52	22.6755	692.062
2	794330	1600.61	579.179	1702.18	19.8925	694.278
3	630960	1685.6	525.362	1765.57	17.3111	696.999
4	501190	1763.46	471.349	1825.37	14.9645	699.535
5	398110	1827.08	409.131	1872.33	12.6218	701.951
6	316230	1892.5	363.101	1927.02	10.8609	704.462
7	251190	1910.5	295.939	1933.28	8.80522	706.828
8	199530	1961.28	263.123	1978.85	7.6411	709.24
9	158490	1999.96	232.042	2013.38	6.61804	711.661
10	125890	2030.63	203.457	2040.8	5.7216	713.997
11	100000	2053.58	177.719	2061.26	4.94612	716.383
12	79433	2073.7	156.099	2079.57	4.30484	718.699
13	63096	2090.08	137.321	2094.59	3.759	721.02
14	50119	2102.57	121.561	2106.08	3.30891	723.356
15	39811	2114.75	108.603	2117.54	2.93984	725.742
16	31623	2123.67	97.918	2125.92	2.63992	728.003
17	25119	2133.47	90.6776	2135.4	2.43374	730.219
18	19953	2143.08	83.9619	2144.72	2.2436	732.505
19	15849	2150.9	79.3014	2152.36	2.11148	734.841
20	12589	2159.11	76.1823	2160.45	2.02079	737.197
21	10000	2166.4	74.3134	2167.67	1.96463	739.463
22	7943.3	2176.11	73.3107	2177.34	1.9295	741.794
23	6309.6	2184.62	73.2525	2185.85	1.92047	744.015
24	5011.9	2193.52	73.935	2194.76	1.93049	746.476
25	3981.1	2202.64	75.3246	2203.93	1.9586	749.022
26	3162.3	2212.58	77.3488	2213.94	2.00216	751.368
27	2511.9	2222.6	80.1562	2224.05	2.06543	753.654
28	1995.3	2232.79	83.4683	2234.35	2.14089	756.105
29	1584.9	2244.75	87.4614	2246.46	2.23126	758.131
30	1258.9	2254.88	91.991	2256.75	2.33617	760.837
31	1000	2267.07	97.7116	2269.18	2.46794	763.034
32	794.33	2279.88	104.078	2282.26	2.61377	765.235
33	630.96	2292.29	111.767	2295.01	2.79139	767.746
34	501.19	2306.36	120.525	2309.51	2.99143	770.027
35	398.11	2322.21	130.824	2325.89	3.22439	772.438
36	316.23	2338.01	142.404	2342.35	3.48548	774.759
37	251.19	2356.06	155.658	2361.19	3.77987	777.335
38	199.53	2375.72	170.672	2381.84	4.10907	781.882
39	158.49	2397.12	187.659	2404.46	4.47629	783.923
40	125.89	2421.22	206.277	2429.99	4.86959	786.094
41	100	2447.24	227.31	2457.78	5.30665	790.695
42	79.433	2476.03	250.533	2488.67	5.77772	794.856
43	63.096	2508.7	276.376	2523.88	6.28674	802.903
44	50.119	2544.75	304.182	2562.87	6.81639	815.871
45	39.811	2585.78	336.618	2607.6	7.41707	827.797
46	31.623	2630.14	371.531	2656.26	8.04034	830.998
47	25.119	2675.6	408.467	2706.59	8.67998	834.389
48	19.953	2728.21	452.749	2765.52	9.42242	838.01
49	15.849	2784.62	501.432	2829.4	10.208	842.926
50	12.589	2848.69	553.739	2902.01	11.0002	847.317
51	10	2918.62	614.252	2982.56	11.885	859.463
52	7.9433	2993.65	680.274	3069.97	12.8024	865.21
53	6.3096	3077.06	755.39	3168.42	13.7928	869.106
54	5.0119	3168.21	840.058	3277.69	14.8504	875.053
55	3.9811	3270.77	933.703	3401.44	15.9324	879.399
56	3.1623	3382.81	1040.17	3539.11	17.0919	883.94
57	2.5119	3504.98	1160.21	3692.02	18.3155	888.696
58	1.9953	3636.11	1295.17	3859.89	19.6057	906.018
59	1.5849	3777.31	1448.13	4045.38	20.9756	913.656
60	1.2589	3930.6	1627.34	4254.16	22.4905	917.202
61	1	4096.6	1836.96	4489.61	24.152	921.453
62	0.79433	4280.18	2084.6	4760.83	25.9677	926.075
63	0.63096	4478.25	2369.28	5066.38	27.8817	930.441
64	0.50119	4692.92	2715.05	5421.71	30.0511	935.442
65	0.39811	4919.41	3130.99	5831.26	32.475	943.553
66	0.31623	5175.29	3622.32	6317.03	34.9892	950.699
67	0.25119	5465.32	4225.58	6908.35	37.7098	958.705
68	0.19953	5794.31	4990.62	7647.24	40.7383	971.476
69	0.15849	6137.37	5860.3	8485.89	43.6771	979.703
70	0.12589	6569.33	6928.03	9547.44	46.5223	988.989
71	0.1	7125.18	8211.59	10871.9	49.0519	1000.09