Folder: Streamlit_cement_impedance/data/20200504 (part 10)

File: Z_p53_3.txt
Index	Frequency (Hz)	Z' (Ω)	-Z'' (Ω)	Z (Ω)	-Phase (°)	Time (s)
1	1000000	1456.89	575.425	1566.41	21.5524	671.491
2	794330	1510.85	518.814	1597.45	18.952	673.527
3	630960	1581.83	468.021	1649.62	16.4821	675.648
4	501190	1651.73	419.147	1704.08	14.2389	677.819
5	398110	1703.34	362.936	1741.58	12.0283	679.88
6	316230	1760.53	321.764	1789.69	10.3574	682.001
7	251190	1804.61	282.24	1826.55	8.88902	683.952
8	199530	1820.9	233.854	1835.86	7.31829	687.749
9	158490	1856.07	206.025	1867.47	6.33394	689.705
10	125890	1883.04	181.393	1891.76	5.50233	691.731
11	100000	1904.99	158.839	1911.6	4.76631	693.957
12	79433	1921.38	140.269	1926.49	4.17542	695.963
13	63096	1936.65	123.176	1940.56	3.63926	698.019
14	50119	1948.65	109.269	1951.71	3.20944	700.07
15	39811	1959.46	97.6488	1961.89	2.85296	702.156
16	31623	1969.25	88.0731	1971.22	2.5608	704.177
17	25119	1977.09	81.0713	1978.75	2.34812	706.108
18	19953	1984.71	75.5957	1986.15	2.18129	708.055
19	15849	1992.3	71.7402	1993.59	2.06226	710.121
20	12589	1999.59	68.8997	2000.78	1.97346	712.192
21	10000	2006.64	67.4809	2007.78	1.92606	714.143
22	7943.3	2015.04	67.1362	2016.16	1.90825	716.139
23	6309.6	2020.52	67.7107	2021.65	1.91935	718.05
24	5011.9	2029.4	69.1366	2030.58	1.95117	720.086
25	3981.1	2036.79	71.4913	2038.04	2.01026	722.067
26	3162.3	2046.08	74.6427	2047.44	2.08928	724.048
27	2511.9	2055.03	78.6641	2056.54	2.19214	725.984
28	1995.3	2064.79	83.7693	2066.49	2.32323	727.95
29	1584.9	2074.42	89.8206	2076.36	2.47931	729.896
30	1258.9	2085.29	96.934	2087.54	2.66146	731.807
31	1000	2096.85	105.552	2099.51	2.88174	733.773
32	794.33	2109.25	115.587	2112.41	3.13668	735.804
33	630.96	2122.74	127.158	2126.55	3.42807	737.725
34	501.19	2138.75	140.994	2143.4	3.77169	739.736
35	398.11	2154.76	156.743	2160.45	4.16051	741.627
36	316.23	2172.86	175.256	2179.91	4.61131	743.558
37	251.19	2193.92	196.356	2202.69	5.11436	745.549
38	199.53	2217.85	220.33	2228.77	5.67337	754.03
39	158.49	2245.44	247.427	2259.03	6.28811	756.196
40	125.89	2275.31	277.551	2292.18	6.95479	758.387
41	100	2309.22	311.301	2330.11	7.67762	760.428
42	79.433	2348.63	348.463	2374.34	8.43933	762.625
43	63.096	2394.45	389.635	2425.95	9.24239	764.841
44	50.119	2446.89	433.568	2485.01	10.048	776.238
45	39.811	2502.15	483.573	2548.45	10.9383	785.994
46	31.623	2566.78	536.45	2622.24	11.8047	788.365
47	25.119	2635.91	593.919	2701.99	12.6977	790.776
48	19.953	2714.83	659.107	2793.69	13.6463	793.337
49	15.849	2797.78	728.488	2891.06	14.5947	796.088
50	12.589	2886.18	806.046	2996.62	15.6039	798.744
51	10	2985.8	892.469	3116.33	16.6416	801.84
52	7.9433	3092.38	992.243	3247.67	17.7897	804.991
53	6.3096	3209.04	1101.59	3392.85	18.9462	808.147
54	5.0119	3334.5	1230.09	3554.15	20.249	811.303
55	3.9811	3467.67	1374.29	3730.07	21.6191	814.479
56	3.1623	3614.96	1543.12	3930.54	23.1163	817.636
57	2.5119	3767.32	1739.64	4149.58	24.7861	825.875
58	1.9953	3939.96	1972.83	4406.28	26.5982	829.231
59	1.5849	4126.77	2247.76	4699.22	28.5762	832.782
60	1.2589	4327.37	2576.3	5036.22	30.7675	836.423
61	1	4545.32	2966.01	5427.44	33.1261	843.095
62	0.79433	4791.12	3436.7	5896.25	35.6521	846.991
63	0.63096	5062.08	4006.46	6455.73	38.3604	851.272
64	0.50119	5372.94	4685.04	7128.68	41.0874	855.953
65	0.39811	5706.11	5509.12	7931.59	43.9937	860.904
66	0.31623	6102.43	6541.06	8945.68	46.9869	866.445
67	0.25119	6574.46	7755.15	10166.9	49.7102	872.692
68	0.19953	7078.94	9211.93	11617.7	52.4594	879.653
69	0.15849	7752.54	10957.6	13422.8	54.7205	887.719
70	0.12589	8504.15	13114.1	15630.1	57.0377	896.98
71	0.1	9398.38	15765.3	18354.2	59.199	907.876

File: Z_p54_1.txt
Index	Frequency (Hz)	Z' (Ω)	-Z'' (Ω)	Z (Ω)	-Phase (°)	Time (s)
1	1000000	1681.65	825.134	1873.18	26.1357	30.7043
2	794330	1772.8	752.576	1925.93	23.0018	32.1694
3	630960	1889.05	693.014	2012.16	20.146	33.6844
4	501190	2002.01	634.162	2100.04	17.5763	35.1144
5	398110	2096.4	565.766	2171.4	15.1029	36.5145
6	316230	2189.04	512.943	2248.33	13.1878	37.8845
7	251190	2226.58	430.806	2267.88	10.9504	39.3045
8	199530	2301.39	390.019	2334.2	9.6186	40.7945
9	158490	2360.14	349.471	2385.87	8.4227	42.2946
10	125890	2408.39	311.023	2428.39	7.35852	43.6846
11	100000	2447.82	275.606	2463.29	6.42402	45.1396
12	79433	2480.8	244.582	2492.83	5.6306	46.5396
13	63096	2507.06	216.095	2516.35	4.92642	47.9647
14	50119	2530.88	191.778	2538.14	4.33331	49.3647
15	39811	2551.38	170.693	2557.08	3.82751	50.7597
16	31623	2568.2	152.219	2572.71	3.39198	52.1847
17	25119	2582.7	137.879	2586.37	3.05588	53.5498
18	19953	2596.8	125.902	2599.85	2.77574	54.8848
19	15849	2609.05	116.141	2611.64	2.54881	56.2198
20	12589	2621.78	108.414	2624.02	2.3679	57.5998
21	10000	2631.99	102.419	2633.99	2.22844	58.9899
22	7943.3	2644.14	98.3089	2645.96	2.12927	60.3549
23	6309.6	2654.7	95.3978	2656.42	2.05806	61.6699
24	5011.9	2664.68	93.8328	2666.33	2.01676	62.9549
25	3981.1	2676.14	93.2802	2677.76	1.99631	64.41
26	3162.3	2686.38	93.8818	2688.02	2.00152	65.89
27	2511.9	2699.32	95.3979	2701.01	2.02407	67.205
28	1995.3	2710.51	97.9233	2712.28	2.06904	68.555
29	1584.9	2721.78	101.507	2723.67	2.13582	69.7901
30	1258.9	2733.99	106.164	2736.05	2.22374	71.1001
31	1000	2747.65	111.828	2749.93	2.33062	72.4451
32	794.33	2762.11	118.792	2764.67	2.46263	73.9451
33	630.96	2775.89	127.358	2778.81	2.62688	75.2002
34	501.19	2793.15	137.393	2796.53	2.81608	76.5302
35	398.11	2808.93	149.08	2812.88	3.03804	77.9202
36	316.23	2826.48	162.87	2831.17	3.2979	79.3352
37	251.19	2847.45	178.782	2853.06	3.59269	80.7553
38	199.53	2869.7	196.964	2876.45	3.92638	82.0253
39	158.49	2893.54	217.495	2901.7	4.2986	83.3403
40	125.89	2920.22	240.181	2930.08	4.70187	84.8453
41	100	2948.54	266.258	2960.54	5.1599	86.2604
42	79.433	2983.03	295.256	2997.6	5.65264	87.7454
43	63.096	3019.58	327.638	3037.3	6.19262	89.2204
44	50.119	3063.25	364.149	3084.82	6.77931	99.1756
45	39.811	3106.6	402.706	3132.59	7.38602	108.371
46	31.623	3158.84	446.458	3190.23	8.04469	110.056
47	25.119	3215.83	494.366	3253.6	8.7396	111.681
48	19.953	3278.41	549.533	3324.15	9.51557	113.656
49	15.849	3346.88	608.957	3401.83	10.312	115.716
50	12.589	3421.04	675.397	3487.08	11.168	117.696
51	10	3502.01	749.929	3581.41	12.0869	120.096
52	7.9433	3591.21	834.969	3687	13.0889	122.421
53	6.3096	3688.19	931.402	3803.98	14.1729	124.816
54	5.0119	3789.86	1041.07	3930.25	15.3602	127.206
55	3.9811	3904.97	1168.43	4076.03	16.6581	129.661
56	3.1623	4027.5	1317.05	4237.38	18.1085	132.211
57	2.5119	4163.39	1490.08	4422.01	19.6923	134.801
58	1.9953	4311.6	1693.61	4632.3	21.4451	137.466
59	1.5849	4477.85	1933.38	4877.41	23.353	140.276
60	1.2589	4659.68	2213.77	5158.82	25.412	143.151
61	1	4863.52	2550.67	5491.79	27.6747	148.372
62	0.79433	5099.39	2947.41	5889.9	30.0276	151.567
63	0.63096	5359.02	3424.2	6359.58	32.5769	155.032
64	0.50119	5650.19	3975.31	6908.53	35.1291	158.877
65	0.39811	5985.28	4660.95	7586.04	37.9092	163.132
66	0.31623	6370.31	5451.68	8384.6	40.5568	167.977
67	0.25119	6827.87	6451.93	9394	43.3784	173.387
68	0.19953	7353.94	7598.58	10574.4	45.9373	179.662
69	0.15849	8026.22	8955.17	12025.6	48.1312	186.842
70	0.12589	8782.29	10510.6	13696.8	50.1191	195.487
71	0.1	9588.72	12477.8	15736.6	52.4591	205.683

File: Z_p54_2.txt
Index	Frequency (Hz)	Z' (Ω)	-Z'' (Ω)	Z (Ω)	-Phase (°)	Time (s)
1	1000000	1680.83	822.353	1871.22	26.0704	293.992
2	794330	1771.48	752.929	1924.85	23.0269	295.407
3	630960	1886.46	692.734	2009.63	20.1639	296.907
4	501190	2000.68	637.432	2099.77	17.6723	298.447
5	398110	2095.51	565.84	2170.56	15.1109	299.852
6	316230	2187.46	511.664	2246.51	13.1652	301.167
7	251190	2225.08	430.267	2266.3	10.9443	302.487
8	199530	2299.16	389.521	2331.93	9.61567	303.902
9	158490	2358.45	348.891	2384.11	8.41487	305.202
10	125890	2406.13	310.369	2426.07	7.35005	306.497
11	100000	2446.19	275.176	2461.62	6.41832	307.987
12	79433	2477.84	243.746	2489.8	5.61814	309.312
13	63096	2506.63	215.909	2515.92	4.92302	310.712
14	50119	2528.78	191.549	2536.03	4.33175	312.102
15	39811	2549.12	170.313	2554.8	3.82239	313.487
16	31623	2565.99	152.038	2570.49	3.39088	314.797
17	25119	2581.78	137.796	2585.45	3.05511	316.102
18	19953	2596.04	125.911	2599.09	2.77673	317.412
19	15849	2608.28	116.033	2610.86	2.54721	318.928
20	12589	2619.03	108.298	2621.27	2.36785	320.453
21	10000	2631.4	102.585	2633.4	2.23254	321.803
22	7943.3	2642.12	98.2025	2643.95	2.12859	323.133
23	6309.6	2654.63	95.5205	2656.35	2.06076	324.498
24	5011.9	2663.57	93.82	2665.22	2.01732	325.808
25	3981.1	2675.26	93.2675	2676.88	1.99669	327.173
26	3162.3	2685.12	93.7686	2686.76	2.00004	328.488
27	2511.9	2697.28	95.3305	2698.97	2.02417	329.773
28	1995.3	2708.61	97.8887	2710.38	2.06975	331.068
29	1584.9	2721.08	101.357	2722.96	2.13322	332.338
30	1258.9	2733.72	106.058	2735.78	2.22175	333.618
31	1000	2746.76	111.827	2749.04	2.33135	335.083
32	794.33	2760.81	118.738	2763.36	2.46268	336.393
33	630.96	2776.08	127.298	2779	2.62549	337.668
34	501.19	2790.46	137.398	2793.84	2.81889	339.018
35	398.11	2808.3	149.105	2812.26	3.03922	340.228
36	316.23	2826.86	162.946	2831.55	3.299	341.613
37	251.19	2846.91	178.507	2852.5	3.58786	343.038
38	199.53	2868.98	196.77	2875.72	3.9235	344.433
39	158.49	2892.25	216.99	2900.37	4.29055	345.923
40	125.89	2919.49	240.009	2929.34	4.69968	347.423
41	100	2948.19	266.094	2960.18	5.15736	348.913
42	79.433	2981.63	294.612	2996.15	5.64302	350.378
43	63.096	3018.82	326.657	3036.44	6.17578	351.908
44	50.119	3061.87	363.244	3083.34	6.76564	353.308
45	39.811	3107.69	402.218	3133.61	7.3746	362.608
46	31.623	3160.45	445.635	3191.72	8.02599	364.233
47	25.119	3215.63	494.057	3253.36	8.73477	365.918
48	19.953	3277.47	548.516	3323.06	9.50094	367.828
49	15.849	3346.04	607.89	3400.81	10.2969	369.778
50	12.589	3419.64	673.704	3485.37	11.1451	371.843
51	10	3500.53	748.299	3579.62	12.0663	374.199
52	7.9433	3590.07	832.657	3685.36	13.0579	376.564
53	6.3096	3685.44	929.036	3800.74	14.1485	378.864
54	5.0119	3789.97	1039.1	3929.84	15.3321	381.219
55	3.9811	3903.56	1166.07	4074	16.6319	383.634
56	3.1623	4026.98	1314.19	4236	18.0739	386.149
57	2.5119	4162.94	1487.08	4420.57	19.6577	388.799
58	1.9953	4310.35	1692.15	4630.61	21.4339	391.349
59	1.5849	4475.8	1929.66	4874.05	23.3224	394.199
60	1.2589	4655.43	2210.6	5153.62	25.4004	397.149
61	1	4860.23	2548.73	5487.98	27.6727	402.164
62	0.79433	5087.7	2948.07	5880.12	30.0902	405.384
63	0.63096	5354.22	3419.24	6352.86	32.5625	409.074
64	0.50119	5645.72	3974.43	6904.36	35.1445	412.899
65	0.39811	5980.79	4656.83	7579.97	37.9054	417.144
66	0.31623	6360.02	5446.16	8373.2	40.5738	421.869
67	0.25119	6832.61	6434.82	9385.71	43.2826	427.235
68	0.19953	7363.12	7591.71	10575.9	45.8757	433.495
69	0.15849	8020.32	8929.98	12002.9	48.0719	440.705
70	0.12589	8740.38	10488.8	13653.2	50.1954	449.32
71	0.1	9611.8	12515.4	15780.5	52.4759	459.555

File: Z_p54_3.txt
Index	Frequency (Hz)	Z' (Ω)	-Z'' (Ω)	Z (Ω)	-Phase (°)	Time (s)
1	1000000	1681.55	822.455	1871.91	26.0635	576.359
2	794330	1772.11	752.086	1925.1	22.9965	578.464
3	630960	1887.78	693.687	2011.2	20.1765	580.774
4	501190	1999.53	636.204	2098.31	17.6499	583.059
5	398110	2095.85	565.744	2170.87	15.1061	585.334
6	316230	2189.51	512.007	2248.58	13.1618	587.494
7	251190	2226.83	430.733	2268.1	10.9475	589.514
8	199530	2300.68	390.696	2333.62	9.6379	591.674
9	158490	2359.98	349.439	2385.71	8.4225	593.984
10	125890	2407.57	310.563	2427.52	7.35025	596.199
11	100000	2447.18	275.543	2462.65	6.42423	598.369
12	79433	2480.98	244.146	2492.97	5.62021	602.09
13	63096	2507.82	216.224	2517.13	4.92785	604.27
14	50119	2531.42	191.831	2538.68	4.3336	606.31
15	39811	2550.91	170.498	2556.6	3.82386	608.45
16	31623	2567.66	152.2	2572.17	3.39228	610.435
17	25119	2582.68	137.86	2586.36	3.05546	612.51
18	19953	2596.58	125.888	2599.63	2.77564	616.145
19	15849	2609.42	115.906	2612	2.54331	618.095
20	12589	2621.68	108.325	2623.92	2.36606	620.035
21	10000	2631.94	102.602	2633.93	2.23246	622
22	7943.3	2644.21	98.1619	2646.03	2.12604	623.965
23	6309.6	2655.05	95.4351	2656.77	2.05859	626.015
24	5011.9	2665.91	93.7608	2667.56	2.01428	627.97
25	3981.1	2675.98	93.3878	2677.61	1.99873	629.905
26	3162.3	2687.72	93.8902	2689.36	2.0007	631.96
27	2511.9	2700.13	95.4316	2701.82	2.02418	633.94
28	1995.3	2710.32	97.9144	2712.09	2.06899	635.87
29	1584.9	2721.96	101.419	2723.85	2.13384	637.89
30	1258.9	2735.71	106.128	2737.76	2.22159	639.84
31	1000	2748.57	111.866	2750.84	2.33063	641.79
32	794.33	2763.58	118.926	2766.14	2.4641	643.92
33	630.96	2779.04	127.309	2781.96	2.62291	645.84
34	501.19	2794.42	137.36	2797.79	2.81412	647.805
35	398.11	2811.61	149.153	2815.56	3.03663	649.875
36	316.23	2828.2	162.77	2832.88	3.2939	651.805
37	251.19	2849.4	178.748	2855	3.58956	653.806
38	199.53	2870.79	196.557	2877.51	3.91681	655.716
39	158.49	2895.79	217.025	2903.91	4.28602	657.716
40	125.89	2921.68	239.924	2931.51	4.69452	659.731
41	100	2951.31	265.949	2963.27	5.14913	661.756
42	79.433	2985.74	294.922	3000.27	5.6412	663.901
43	63.096	3022.15	326.996	3039.79	6.17536	666.036
44	50.119	3064.41	363.996	3085.96	6.77396	677.246
45	39.811	3109.77	402.126	3135.66	7.36808	687.011
46	31.623	3160.35	445.578	3191.61	8.02524	689.256
47	25.119	3218	493.327	3255.59	8.71572	691.606
48	19.953	3280.39	548.053	3325.86	9.48477	694.171
49	15.849	3347.2	607.052	3401.8	10.2795	696.856
50	12.589	3422.74	672.856	3488.25	11.1216	699.421
51	10	3501.7	747.812	3580.66	12.0548	702.351
52	7.9433	3591.61	831.839	3686.68	13.0401	705.296
53	6.3096	3687.96	927.63	3802.83	14.1187	708.327
54	5.0119	3790.15	1037.33	3929.54	15.3066	711.437
55	3.9811	3905.55	1165.1	4075.63	16.6108	714.562
56	3.1623	4029.03	1312.31	4237.37	18.0411	717.752
57	2.5119	4164.37	1485.86	4421.51	19.6365	721.052
58	1.9953	4310.12	1687.89	4628.83	21.3858	724.357
59	1.5849	4476.73	1928.14	4874.3	23.3017	727.812
60	1.2589	4654.02	2211.7	5152.82	25.4182	731.447
61	1	4859.07	2545.56	5485.47	27.6491	737.732
62	0.79433	5091.91	2940.28	5879.86	30.0039	741.527
63	0.63096	5353.32	3418.32	6351.6	32.5599	745.662
64	0.50119	5639.08	3968.88	6895.74	35.1386	750.177
65	0.39811	5959.41	4652.09	7560.19	37.9767	754.992
66	0.31623	6358.39	5444.27	8370.73	40.5713	760.457
67	0.25119	6792.73	6411.16	9340.46	43.3447	766.553
68	0.19953	7375.64	7569.4	10568.6	45.7428	773.503
69	0.15849	8006.36	8953.19	12010.9	48.1954	781.363
70	0.12589	8783.65	10548.2	13726.5	50.2155	790.513
71	0.1	9643.09	12385.8	15697.1	52.0972	801.573

File: Z_p55_1.txt
Index	Frequency (Hz)	Z' (Ω)	-Z'' (Ω)	Z (Ω)	-Phase (°)	Time (s)
1	1000000	1672.12	804.873	1855.75	25.7038	48.1827
2	794330	1760.22	733.086	1906.78	22.6104	49.5827
3	630960	1871.55	676.055	1989.92	19.8611	51.0977
4	501190	1978.27	621.974	2073.74	17.4533	52.6927
5	398110	2072.55	551.818	2144.75	14.9092	54.1828
6	316230	2162.39	499.929	2219.43	13.0176	55.7178
7	251190	2199.51	420.59	2239.36	10.8254	57.0078
8	199530	2273.02	382.393	2304.96	9.54953	58.3829
9	158490	2330.29	343.202	2355.42	8.37824	59.6679
10	125890	2378.5	306.325	2398.14	7.3387	60.9879
11	100000	2417.13	272.393	2432.43	6.42968	62.3829
12	79433	2450.33	242.165	2462.27	5.64419	63.6829
13	63096	2477.08	215.22	2486.41	4.96565	65.108
14	50119	2500.51	192.035	2507.88	4.39158	66.623
15	39811	2520.96	171.862	2526.81	3.9	68.018
16	31623	2539.01	154.724	2543.72	3.48722	69.4081
17	25119	2552.49	141.004	2556.38	3.1619	70.7281
18	19953	2567.57	130.114	2570.86	2.90104	71.9981
19	15849	2580.81	121.436	2583.66	2.69397	73.2731
20	12589	2593.99	114.901	2596.54	2.53627	74.6732
21	10000	2603.92	109.957	2606.24	2.41801	75.9682
22	7943.3	2617.27	107.211	2619.47	2.34568	77.2282
23	6309.6	2628.53	105.705	2630.65	2.30288	78.5582
24	5011.9	2641.51	105.554	2643.61	2.28831	79.9682
25	3981.1	2654.72	106.913	2656.87	2.30621	81.3333
26	3162.3	2666.72	109.359	2668.96	2.34831	82.5983
27	2511.9	2680.01	113.037	2682.39	2.41518	83.9333
28	1995.3	2692.89	117.958	2695.47	2.50816	85.2183
29	1584.9	2707.6	124.585	2710.47	2.63449	86.4584
30	1258.9	2722.78	132.358	2725.99	2.78303	87.8084
31	1000	2737.24	142.127	2740.93	2.97232	89.1734
32	794.33	2754.62	153.604	2758.9	3.19163	90.6834
33	630.96	2773.2	167.355	2778.25	3.45345	92.0185
34	501.19	2792.91	183.401	2798.92	3.75703	93.3635
35	398.11	2815.15	202.046	2822.39	4.10515	94.5585
36	316.23	2839.31	223.999	2848.13	4.51085	95.9285
37	251.19	2866.21	248.663	2876.97	4.95838	97.3736
38	199.53	2896.43	277.703	2909.71	5.47665	98.7436
39	158.49	2928.82	310.057	2945.19	6.04306	100.044
40	125.89	2965.86	346.367	2986.02	6.66109	101.404
41	100	3007.97	387.508	3032.83	7.34081	102.834
42	79.433	3056.29	433.53	3086.88	8.07346	104.264
43	63.096	3110.62	484.587	3148.14	8.85463	105.714
44	50.119	3171.06	541.407	3216.94	9.68891	107.049
45	39.811	3242.06	604.187	3297.87	10.5565	116.244
46	31.623	3316.79	672.772	3384.34	11.4662	117.889
47	25.119	3402.49	748.435	3483.83	12.4056	119.624
48	19.953	3496.98	834.194	3595.1	13.417	121.604
49	15.849	3602.47	927.062	3719.84	14.4314	123.634
50	12.589	3718.48	1029.87	3858.46	15.4807	125.734
51	10	3843.4	1144.82	4010.28	16.587	127.989
52	7.9433	3981.51	1273.91	4180.34	17.7424	130.274
53	6.3096	4130.36	1418.93	4367.29	18.9595	132.754
54	5.0119	4294.99	1585.42	4578.26	20.2607	135.089
55	3.9811	4471.95	1775.36	4811.47	21.653	137.669
56	3.1623	4664.6	1994.26	5073.02	23.1482	140.084
57	2.5119	4880.74	2250.13	5374.45	24.7507	142.769
58	1.9953	5113.26	2544.46	5711.36	26.4559	145.334
59	1.5849	5374.21	2892.63	6103.23	28.2911	148.185
60	1.2589	5658.72	3298.25	6549.77	30.2362	151.11
61	1	5990.76	3783.81	7085.65	32.2768	156.205
62	0.79433	6361.72	4344.31	7703.54	34.3285	159.345
63	0.63096	6772.77	5002.05	8419.68	36.4478	162.98
64	0.50119	7235.62	5791.45	9267.96	38.674	166.86
65	0.39811	7764.87	6707.65	10260.9	40.8219	171.1
66	0.31623	8393.99	7817.25	11470.3	42.9625	175.89
67	0.25119	9117.32	9063.1	12855.6	44.8291	181.335
68	0.19953	9980.39	10561.1	14530.8	46.6194	187.53
69	0.15849	10945.4	12343.3	16497.2	48.4351	194.83
70	0.12589	12149.7	14502.3	18919.1	50.0444	203.421
71	0.1	13587.6	16803.7	21609.8	51.0408	213.686

File: Z_p55_2.txt
Index	Frequency (Hz)	Z' (Ω)	-Z'' (Ω)	Z (Ω)	-Phase (°)	Time (s)
1	1000000	1671.73	803.034	1854.6	25.6578	359.577
2	794330	1758.96	733.009	1905.59	22.6229	360.982
3	630960	1873.57	676.32	1991.9	19.8486	362.347
4	501190	1981.12	620.697	2076.08	17.3961	363.837
5	398110	2073.47	551.776	2145.63	14.9018	365.307
6	316230	2163.56	500.605	2220.72	13.0279	366.832
7	251190	2200.44	421.449	2240.43	10.8425	369.267
8	199530	2272.48	381.76	2304.33	9.53622	370.592
9	158490	2332.75	344.404	2358.04	8.39839	372.017
10	125890	2379.41	306.266	2399.04	7.33452	373.317
11	100000	2416.96	272.301	2432.25	6.42799	374.702
12	79433	2450.76	242.194	2462.69	5.64388	376.148
13	63096	2477.26	215.227	2486.59	4.96545	377.643
14	50119	2501.43	191.899	2508.78	4.3869	378.958
15	39811	2520.93	171.663	2526.77	3.89554	380.263
16	31623	2537.72	154.466	2542.41	3.48319	381.623
17	25119	2553.7	141.034	2557.59	3.16109	383.018
18	19953	2568.98	130.075	2572.27	2.89858	384.268
19	15849	2581.75	121.221	2584.6	2.68824	385.578
20	12589	2594.76	114.745	2597.29	2.53209	386.923
21	10000	2606.7	110.073	2609.02	2.418	388.328
22	7943.3	2617.84	106.955	2620.03	2.33958	389.748
23	6309.6	2631.39	105.488	2633.5	2.29565	391.028
24	5011.9	2641.91	105.26	2644	2.28161	392.403
25	3981.1	2655.33	106.492	2657.47	2.29662	393.743
26	3162.3	2668.25	108.747	2670.46	2.33385	395.118
27	2511.9	2680.12	112.501	2682.48	2.40363	396.533
28	1995.3	2694.68	117.61	2697.25	2.49909	397.928
29	1584.9	2708.56	123.858	2711.39	2.61821	399.093
30	1258.9	2724.26	131.642	2727.44	2.76651	400.373
31	1000	2739.5	141.207	2743.14	2.95068	401.693
32	794.33	2756.86	152.529	2761.07	3.16678	403.008
33	630.96	2773.74	166.102	2778.71	3.42699	404.368
34	501.19	2794.89	182.015	2800.81	3.72609	405.783
35	398.11	2817.15	200.479	2824.27	4.07054	407.203
36	316.23	2840.01	221.905	2848.67	4.46775	408.533
37	251.19	2867.93	246.627	2878.52	4.91503	409.908
38	199.53	2895.66	274.674	2908.66	5.4187	411.118
39	158.49	2929.81	306.877	2945.84	5.97951	412.483
40	125.89	2966.72	342.627	2986.44	6.58792	414.003
41	100	3008.44	383.04	3032.73	7.25596	415.368
42	79.433	3056.56	428.913	3086.5	7.9879	416.778
43	63.096	3110.62	478.936	3147.28	8.75298	418.293
44	50.119	3171.4	535.603	3216.31	9.58597	428.113
45	39.811	3239.71	596.805	3294.22	10.4378	437.199
46	31.623	3313.61	664.58	3379.6	11.3408	438.969
47	25.119	3398.99	739.726	3478.55	12.2779	440.644
48	19.953	3492.76	823.771	3588.58	13.2708	442.554
49	15.849	3596.67	915.853	3711.45	14.2861	444.479
50	12.589	3709.88	1017.92	3847	15.3433	446.484
51	10	3835.02	1131.18	3998.36	16.4339	448.854
52	7.9433	3969.5	1259.02	4164.38	17.5977	451.109
53	6.3096	4119.92	1403.43	4352.39	18.8112	453.404
54	5.0119	4279.26	1567.87	4557.44	20.1222	455.874
55	3.9811	4456.13	1757.46	4790.17	21.5238	458.294
56	3.1623	4648.41	1974.12	5050.23	23.0103	460.834
57	2.5119	4861.11	2229.47	5347.98	24.6378	463.379
58	1.9953	5093.51	2523.73	5684.45	26.3574	466.069
59	1.5849	5346.98	2866.63	6066.94	28.1966	468.884
60	1.2589	5630.76	3272.28	6512.55	30.1627	471.769
61	1	5957.82	3752.06	7040.85	32.2015	476.844
62	0.79433	6329.2	4312.32	7658.64	34.2681	479.944
63	0.63096	6729.44	4971.29	8366.54	36.4547	483.48
64	0.50119	7198.74	5754.23	9215.91	38.6367	487.37
65	0.39811	7733.08	6684.68	10221.8	40.841	491.535
66	0.31623	8370.14	7756.44	11411.5	42.8207	496.305
67	0.25119	9053.98	9063.13	12810.7	45.0289	501.775
68	0.19953	9890.95	10574.6	14479.4	46.9132	508.005
69	0.15849	10885.6	12359.7	16469.9	48.6285	515.315
70	0.12589	12146.5	14411.1	18847.2	49.874	523.92
71	0.1	13388.8	16813.8	21493.3	51.4698	534.095

File: Z_p55_3.txt
Index	Frequency (Hz)	Z' (Ω)	-Z'' (Ω)	Z (Ω)	-Phase (°)	Time (s)
1	1000000	1672.71	802.92	1855.43	25.6416	601.819
2	794330	1760.99	735.766	1908.52	22.6758	604
3	630960	1875.63	676.658	1993.95	19.8376	606.281
4	501190	1983.68	623.593	2079.39	17.4511	608.512
5	398110	2074.86	552.728	2147.21	14.9168	610.948
6	316230	2165.7	500.968	2222.88	13.0246	613.254
7	251190	2201.99	422.145	2242.09	10.8525	615.47
8	199530	2276.15	384.198	2308.34	9.58082	617.571
9	158490	2333.68	343.792	2358.87	8.38038	619.687
10	125890	2382.57	307.072	2402.27	7.34397	621.643
11	100000	2420.09	273.051	2435.45	6.43727	623.824
12	79433	2453.36	242.677	2465.33	5.6491	625.75
13	63096	2481.97	215.837	2491.34	4.97004	627.996
14	50119	2504.38	192.525	2511.77	4.39599	630.017
15	39811	2525.39	172.209	2531.26	3.90101	632.238
16	31623	2541.54	154.91	2546.26	3.48794	634.294
17	25119	2557.84	141.245	2561.74	3.16069	636.22
18	19953	2572.13	130.139	2575.42	2.89646	638.301
19	15849	2585.77	121.422	2588.62	2.68851	640.317
20	12589	2598.22	114.84	2600.76	2.5308	642.328
21	10000	2610.12	110.172	2612.44	2.41699	644.359
22	7943.3	2621.64	107.156	2623.83	2.34058	646.475
23	6309.6	2635.07	105.613	2637.18	2.29517	648.456
24	5011.9	2646.82	105.488	2648.92	2.28229	652.118
25	3981.1	2659.76	106.711	2661.9	2.2975	654.014
26	3162.3	2672.08	109.042	2674.3	2.33683	656.061
27	2511.9	2685.49	112.671	2687.85	2.40246	658.262
28	1995.3	2699.5	117.628	2702.06	2.49503	660.278
29	1584.9	2712.57	123.916	2715.39	2.61557	662.384
30	1258.9	2728.19	131.696	2731.37	2.76366	664.35
31	1000	2743.93	141.257	2747.56	2.94696	666.371
32	794.33	2760.77	152.709	2764.99	3.16602	668.457
33	630.96	2780.2	166.092	2785.16	3.41885	670.463
34	501.19	2799.11	181.767	2805.01	3.71541	672.464
35	398.11	2821.71	200.43	2828.82	4.06299	674.505
36	316.23	2844.37	221.807	2853.01	4.45896	676.491
37	251.19	2870.98	246.151	2881.52	4.90041	678.612
38	199.53	2900.12	274.509	2913.09	5.40717	680.673
39	158.49	2933.25	306.33	2949.2	5.962	682.649
40	125.89	2970.99	342.398	2990.66	6.57416	685.085
41	100	3013.23	382.817	3037.45	7.24038	687.206
42	79.433	3058.56	427.811	3088.34	7.96248	689.412
43	63.096	3112.56	478.18	3149.08	8.734	691.493
44	50.119	3175.43	534.261	3220.06	9.55047	702.86
45	39.811	3241.6	595.42	3295.83	10.4081	712.642
46	31.623	3319.71	663.641	3385.4	11.3049	714.908
47	25.119	3403.83	738.341	3482.99	12.2387	717.244
48	19.953	3496.47	821.786	3591.75	13.2263	719.78
49	15.849	3600.64	914.096	3714.86	14.2448	722.386
50	12.589	3713.77	1015.16	3850.02	15.2884	725.032
51	10	3836.15	1127.95	3998.54	16.385	727.933
52	7.9433	3972.37	1255.86	4166.17	17.5442	730.844
53	6.3096	4120.27	1399.4	4351.43	18.7595	733.875
54	5.0119	4282.33	1564.33	4559.11	20.0672	736.936
55	3.9811	4456.46	1751.13	4788.16	21.452	739.982
56	3.1623	4647.49	1968.19	5047.07	22.9525	743.163
57	2.5119	4858.29	2221.8	5342.23	24.5756	746.384
58	1.9953	5089.05	2514.57	5676.4	26.2946	749.925
59	1.5849	5347.8	2859.49	6064.29	28.1336	753.241
60	1.2589	5630.98	3263.58	6508.37	30.0955	756.927
61	1	5951.55	3742.89	7030.66	32.1655	763.295
62	0.79433	6315.47	4302.22	7641.61	34.2634	767.091
63	0.63096	6736.98	4965.52	8369.18	36.3922	771.272
64	0.50119	7184.39	5729.9	9189.51	38.5741	775.823
65	0.39811	7708.18	6667.38	10191.7	40.859	780.664
66	0.31623	8335.83	7734.57	11371.4	42.8573	786.22
67	0.25119	9030.53	9039.27	12777.3	45.0277	792.266
68	0.19953	9944.94	10554.2	14501.4	46.7023	799.242
69	0.15849	10934.5	12374.3	16513.2	48.5348	807.148
70	0.12589	12134.1	14418.1	18844.6	49.9165	816.364
71	0.1	13442.8	16775.2	21496.9	51.2931	827.231