Folder: Streamlit_cement_impedance/data/20200805 (part 2)

File: Z_p24_1.txt
Index	Frequency (Hz)	Z' (Ω)	-Z'' (Ω)	Z (Ω)	-Phase (°)	Time (s)
1	1000000	3390.85	6744.71	7549.1	63.3094	22.8782
2	794330	4903.62	7121.23	8646.24	55.449	24.3082
3	630960	6536	7756.78	10143.3	49.8819	25.7232
4	501190	8141.49	8503.53	11772.6	46.246	27.1633
5	398110	10407.1	9729.44	14246.8	43.0725	29.4983
6	316230	12241.7	10138.3	15894.8	39.6308	30.8083
7	251190	13865.5	10283.2	17262.6	36.562	33.0934
8	199530	15769.9	10579.1	18989.7	33.8555	34.4484
9	158490	17648.7	10712.2	20645.3	31.2565	35.8234
10	125890	19511.9	10725.8	22265.6	28.798	37.1084
11	100000	21346.2	10621.2	23842.6	26.4534	38.4835
12	79433	23136.8	10402.5	25367.7	24.2091	39.7585
13	63096	24875	10077.9	26838.9	22.055	41.1385
14	50119	26546.1	9635.74	28240.8	19.95	42.5135
15	39811	28119.3	9082.78	29549.8	17.9009	43.8486
16	31623	29494.6	8406.46	30669.2	15.9085	45.1236
17	25119	30709.4	7778.58	31679.3	14.2139	46.4336
18	19953	31845.5	7143.63	32636.9	12.6434	47.7736
19	15849	32839.7	6484.93	33473.8	11.1706	49.0637
20	12589	33693.5	5842.13	34196.2	9.83674	50.3787
21	10000	34397.6	5206.5	34789.4	8.6071	51.7487
22	7943.3	35044.9	4663.06	35353.8	7.57922	53.0087
23	6309.6	35594.2	4167.03	35837.3	6.67724	54.2638
24	5011.9	36091.6	3720.78	36282.9	5.88597	55.5988
25	3981.1	36488.1	3321.16	36638.9	5.20075	56.9188
26	3162.3	36869.9	2974.1	36989.6	4.61176	58.1888
27	2511.9	37201.1	2669.01	37296.7	4.10368	59.5589
28	1995.3	37471.9	2402.16	37548.8	3.66797	60.8839
29	1584.9	37746.2	2170.76	37808.6	3.29141	62.2389
30	1258.9	37978.4	1973.12	38029.6	2.97405	63.4889
31	1000	38206.6	1805.13	38249.2	2.70502	64.774
32	794.33	38398.6	1657.63	38434.3	2.47187	66.239
33	630.96	38588.3	1532.59	38618.7	2.2744	67.544
34	501.19	38769.6	1426.45	38795.8	2.10713	68.859
35	398.11	38919.3	1335.27	38942.2	1.96497	70.1841
36	316.23	39078.8	1262.25	39099.1	1.85001	71.5741
37	251.19	39222.2	1200.62	39240.6	1.75331	72.9241
38	199.53	39379.1	1152.53	39396	1.67643	74.2741
39	158.49	39502.2	1110.17	39517.8	1.60981	75.6392
40	125.89	39621.7	1083.26	39636.5	1.56607	77.0692
41	100	39749.8	1064.59	39764.1	1.53414	78.4342
42	79.433	39872.3	1051.79	39886.1	1.51105	79.8042
43	63.096	40019.2	1038.63	40032.6	1.48669	81.2243
44	50.119	40160.1	1058.83	40174	1.51026	82.6743
45	39.811	40282.9	1068.7	40297.1	1.51969	91.7995
46	31.623	40408.8	1091.38	40423.5	1.5471	93.4095
47	25.119	40542.8	1120.71	40558.3	1.5834	95.0695
48	19.953	40662.7	1176.46	40679.7	1.65723	96.9095
49	15.849	40819.9	1244.91	40838.9	1.74684	98.8546
50	12.589	40972.3	1323.05	40993.7	1.84951	100.815
51	10	41109.3	1428.92	41134.1	1.99075	103.115
52	7.9433	41261.4	1556.5	41290.8	2.16034	105.41
53	6.3096	41424.5	1701.68	41459.4	2.35233	107.75
54	5.0119	41611.5	1881.76	41654	2.58928	110.195
55	3.9811	41804.6	2093.2	41857	2.86646	112.575
56	3.1623	42027.8	2345	42093.2	3.19358	115.14
57	2.5119	42278.7	2644.02	42361.3	3.57849	117.775
58	1.9953	42499.9	3006.97	42606.2	4.04706	120.415
59	1.5849	42809.9	3405.97	42945.1	4.5489	123.21
60	1.2589	43081.1	3911.62	43258.3	5.18804	126.15
61	1	43364.7	4547.09	43602.5	5.98598	129.47
62	0.79433	43800.1	5247.56	44113.4	6.83187	132.755
63	0.63096	44101.1	6140.79	44526.6	7.92709	136.215
64	0.50119	44574.1	7241.17	45158.4	9.22723	140.13
65	0.39811	45009.1	8661.82	45835	10.8932	144.38
66	0.31623	45696.1	10262.8	46834.4	12.6579	149.191
67	0.25119	46232.2	12313.8	47844	14.9143	154.606
68	0.19953	46995	14626.5	49218.5	17.288	160.921
69	0.15849	48036.7	17653.4	51177.8	20.1783	168.181
70	0.12589	49736	21074.8	54016.8	22.964	176.651
71	0.1	50618.8	24934.5	56426.9	26.2246	186.876

File: Z_p25_1.txt
Index	Frequency (Hz)	Z' (Ω)	-Z'' (Ω)	Z (Ω)	-Phase (°)	Time (s)
1	1000000	3578.2	8161.35	8911.29	66.3258	18.2761
2	794330	5482.08	8601.32	10199.8	57.4885	19.7011
3	630960	7614.86	9479.46	12159.2	51.225	21.2912
4	501190	9767.78	10399.9	14267.7	46.7954	22.9362
5	398110	12638	12306.8	17640.2	44.2394	26.3262
6	316230	14937.6	12873	19719.2	40.7544	27.9363
7	251190	17082.2	13155.8	21561	37.6016	31.7313
8	199530	19515.7	13556.9	23762.4	34.7864	33.0864
9	158490	21928.1	13740	25877.2	32.071	34.5264
10	125890	24325.8	13770.8	27953.2	29.5142	36.0714
11	100000	26664.9	13657.2	29958.9	27.1205	37.6315
12	79433	28955.3	13408.1	31909	24.847	39.1365
13	63096	31180.3	13013.2	33786.9	22.6534	40.7915
14	50119	33355.8	12499	35620.7	20.5418	42.2565
15	39811	35406.6	11837.3	37333	18.486	43.7066
16	31623	37191.8	11000.1	38784.4	16.4764	45.1116
17	25119	38779.9	10273.6	40117.7	14.838	46.6766
18	19953	40275.4	9492.64	41379	13.2622	48.2567
19	15849	41611.2	8682.74	42507.5	11.7864	49.8117
20	12589	42798.2	7911.88	43523.3	10.4737	51.3917
21	10000	43768.8	7104.01	44341.6	9.21915	53.9168
22	7943.3	44690.4	6414.16	45148.4	8.16756	55.2968
23	6309.6	45499.6	5780.63	45865.3	7.24053	56.7518
24	5011.9	46188.9	5204.4	46481.2	6.42878	58.1768
25	3981.1	46806.3	4678.92	47039.6	5.70852	59.4419
26	3162.3	47323.4	4208.91	47510.2	5.08248	60.8319
27	2511.9	47826.4	3795.35	47976.8	4.5373	62.3119
28	1995.3	48241.4	3438.65	48363.8	4.07714	63.8319
29	1584.9	48613.3	3116.98	48713.2	3.66865	65.292
30	1258.9	48979.2	2840.78	49061.5	3.31942	66.757
31	1000	49306.6	2604.7	49375.4	3.02393	68.212
32	794.33	49581.9	2391.93	49639.6	2.76192	69.687
33	630.96	49819.8	2218.68	49869.2	2.54993	73.0271
34	501.19	50098.1	2074.17	50141	2.37082	74.5771
35	398.11	50352.8	1956.44	50390.8	2.22509	76.0822
36	316.23	50564.5	1853.09	50598.5	2.09883	77.5872
37	251.19	50771.2	1780.05	50802.4	2.00798	79.2472
38	199.53	50990.1	1721.99	51019.2	1.93421	80.8873
39	158.49	51184	1690.12	51211.9	1.89124	82.3623
40	125.89	51353.1	1664.24	51380.1	1.85618	84.0723
41	100	51537.7	1662.67	51564.5	1.8478	85.7023
42	79.433	51745.3	1682.62	51772.6	1.86245	87.4124
43	63.096	51957.7	1759.21	51987.5	1.93921	89.4724
44	50.119	52149	1783.22	52179.5	1.95845	91.3425
45	39.811	52376	1863.95	52409.1	2.03817	100.633
46	31.623	52577.8	1969.82	52614.7	2.14558	102.443
47	25.119	52797	2099.61	52838.7	2.27732	104.363
48	19.953	53031.3	2269.24	53079.8	2.45022	106.543
49	15.849	53278.5	2467.03	53335.6	2.65115	108.498
50	12.589	53547.5	2706.82	53615.8	2.89384	110.798
51	10	53836.8	2999.15	53920.2	3.18855	113.273
52	7.9433	54173.3	3347.88	54276.6	3.53636	115.808
53	6.3096	54504	3743.19	54632.4	3.92875	118.323
54	5.0119	54925.8	4208.7	55086.8	4.38175	120.908
55	3.9811	55371.2	4766.95	55576	4.92051	123.353
56	3.1623	55883	5400.2	56143.3	5.51959	125.913
57	2.5119	56426.9	6146.29	56760.7	6.21643	128.763
58	1.9953	57029.8	7022.26	57460.5	7.01967	131.558
59	1.5849	57774	8006.8	58326.2	7.89026	134.323
60	1.2589	58525.1	9160.41	59237.7	8.89582	137.518
61	1	59377.2	10607.9	60317.3	10.1292	141.203
62	0.79433	60341.5	12184.6	61559.5	11.4161	148.379
63	0.63096	61402.5	14138.9	63009.3	12.9672	152.874
64	0.50119	62608.9	16541	64757.1	14.7991	156.734
65	0.39811	63945.3	19417.5	66828.5	16.8914	160.894
66	0.31623	65784.8	22749	69607.2	19.0758	165.739
67	0.25119	67450.4	26785.6	72574.3	21.6588	171.159
68	0.19953	69709	31242.4	76390	24.1412	177.444
69	0.15849	72486.6	37136.8	81446	27.1273	184.694
70	0.12589	76330.8	43687.3	87948.7	29.7843	193.194
71	0.1	80412.6	50908.4	95172.7	32.3375	204.46

File: Z_p26_1.txt
Index	Frequency (Hz)	Z' (Ω)	-Z'' (Ω)	Z (Ω)	-Phase (°)	Time (s)
1	1000000	3685.21	8794.1	9535.04	67.2636	52.9468
2	794330	5877.92	9275.61	10981.2	57.6377	54.5868
3	630960	8203.25	10113	13021.8	50.9525	56.1968
4	501190	10664.7	11079.4	15378.2	46.0927	58.1519
5	398110	13949.3	13055.2	19105.6	43.1037	61.7519
6	316230	16463.2	13557.3	21326.9	39.4711	63.152
7	251190	18825.9	13513	23173.6	35.6703	68.3171
8	199530	21408.6	13626.2	25377.2	32.476	69.9971
9	158490	23896.2	13486.4	27439.3	29.4393	71.4921
10	125890	26288.4	13138.1	29388.6	26.5545	73.0621
11	100000	28550.6	12648.5	31227	23.8943	74.9522
12	79433	30610.5	12001	32879	21.4079	76.7422
13	63096	32578.8	11259.4	34469.6	19.0653	78.5072
14	50119	34342.4	10429.3	35891.1	16.8928	80.3623
15	39811	35947.5	9485.05	37177.8	14.7811	82.1423
16	31623	37195.6	8447.28	38142.8	12.7951	83.9874
17	25119	38277.2	7644.25	39033.1	11.2938	85.7824
18	19953	39250.7	6817.56	39838.4	9.85355	87.3874
19	15849	40063.5	6052.93	40518.2	8.59145	88.9524
20	12589	40771.2	5348.14	41120.5	7.47308	90.7525
21	10000	41337.8	4692.58	41603.3	6.47637	92.4025
22	7943.3	41867.4	4154.5	42073	5.66691	94.0875
23	6309.6	42306	3679.61	42465.8	4.97084	95.8626
24	5011.9	42688.8	3268.94	42813.8	4.37894	97.5526
25	3981.1	43046.2	2912.47	43144.6	3.87069	99.1626
26	3162.3	43326.7	2604.12	43404.9	3.43958	101.073
27	2511.9	43589.6	2344.04	43652.6	3.07813	102.853
28	1995.3	43860.8	2122.53	43912.1	2.77052	104.573
29	1584.9	44076	1934.12	44118.4	2.51261	106.063
30	1258.9	44285.5	1775.42	44321	2.29578	107.488
31	1000	44484.6	1639.65	44514.8	2.1109	110.178
32	794.33	44661	1523.54	44687	1.9538	111.828
33	630.96	44848.1	1428.24	44870.8	1.82404	113.438
34	501.19	45024.2	1351.57	45044.5	1.71943	115.158
35	398.11	45158.2	1286.31	45176.5	1.6316	116.858
36	316.23	45321.2	1233.06	45337.9	1.55846	118.638
37	251.19	45462.7	1191.21	45478.3	1.50091	120.278
38	199.53	45612.7	1166.54	45627.6	1.46501	121.768
39	158.49	45745.4	1152.05	45759.9	1.44263	123.368
40	125.89	45889	1138.39	45903.1	1.42107	124.993
41	100	46019.2	1145.2	46033.5	1.42553	126.503
42	79.433	46152.2	1169.15	46167	1.45113	128.138
43	63.096	46293.6	1209.24	46309.4	1.49629	129.818
44	50.119	46424.6	1249.47	46441.5	1.54168	131.408
45	39.811	46571.1	1310.68	46589.5	1.61208	141.033
46	31.623	46728.4	1393.68	46749.2	1.70835	143.353
47	25.119	46892	1490.45	46915.6	1.82052	145.218
48	19.953	47040.6	1631.32	47068.9	1.98616	147.519
49	15.849	47211.7	1782.31	47245.3	2.16198	149.999
50	12.589	47417.2	1974.91	47458.3	2.38498	152.629
51	10	47638.5	2194.8	47689	2.63786	156.994
52	7.9433	47886.4	2449.47	47949	2.92822	162.394
53	6.3096	48153.8	2752.93	48232.4	3.27202	165.589
54	5.0119	48414.5	3102.45	48513.8	3.66655	169.059
55	3.9811	48755.6	3519.62	48882.5	4.12897	171.874
56	3.1623	49091.8	3998.78	49254.3	4.65676	182.369
57	2.5119	49502.1	4553.16	49711	5.25523	188.069
58	1.9953	49905.8	5220.38	50178.1	5.97169	192.129
59	1.5849	50370.5	6010.72	50727.8	6.80495	196.799
60	1.2589	50902.3	6952.05	51374.8	7.77714	203.005
61	1	51453.9	8076.96	52084	8.92118	208.835
62	0.79433	52118.3	9460.94	52970.1	10.2888	215.53
63	0.63096	52888.7	11104.2	54041.8	11.8573	220.66
64	0.50119	53775.1	13011.8	55326.9	13.6023	227.825
65	0.39811	54699.3	15371.6	56818.2	15.6964	235.495
66	0.31623	55698.4	18131.5	58575.2	18.0316	243.24
67	0.25119	57102.5	21495.1	61014.2	20.6278	253.465
68	0.19953	58721.5	25588.2	64054.5	23.5454	271.891
69	0.15849	60647.4	30499.2	67884.5	26.6975	285.371
70	0.12589	62734.3	36648.1	72654.5	30.2926	299.061
71	0.1	65392.1	43648.7	78621.4	33.7228	315.257