Folder: Streamlit_cement_impedance/data/20200304 (part 3)

File: OCP_p31_1.txt
Time (s)	WE(1).Potential (V)	Corrected time (s)	Index	dWE(1).Potential/dt (V/s)	OCP value (V)
1.53975	0.0181458	0	1	0	0.0175775
1.83975	0.0181427	0.3	4	-0.00019328
2.13975	0.0181396	0.6	7	8.14348e-05
2.43975	0.0181244	0.9	10	8.64888e-05
2.73975	0.0181244	1.2	13	-4.5759e-05
3.03975	0.0181152	1.5	16	-0.00021367
3.33975	0.018103	1.8	19	-0.00026955
3.63975	0.0181	2.1	22	0.000356032
3.93975	0.0181	2.4	25	0.000183073
4.23975	0.0180878	2.7	28	5.08999e-05
4.53975	0.0180817	3	31	-6.61177e-05
4.83975	0.0180786	3.3	34	0.000218774
5.13975	0.0180695	3.6	37	-0.000122078
5.43975	0.0180634	3.9	40	-0.000157667
5.73975	0.0180603	4.2	43	0.000218712
6.03975	0.0180573	4.5	46	8.14162e-05
6.33975	0.0180511	4.8	49	-0.00015771
6.63975	0.0180389	5.1	52	-0.000361179
6.93975	0.0180389	5.4	55	-6.20882e-08
7.23975	0.018042	5.7	58	-3.55765e-05
7.53975	0.0180298	6	61	-0.000178025
7.83975	0.0180389	6.3	64	0.000350978
8.13975	0.0180176	6.6	67	-0.000300022
8.43975	0.0180298	6.9	70	0.000269574
8.73975	0.0180267	7.2	73	0.000264452
9.03975	0.0180054	7.5	76	-0.000757829
9.33975	0.0180054	7.8	79	0.000137314
9.63975	0.0179962	8.1	82	1.52985e-05
9.93975	0.0179871	8.4	85	-0.000122096
10.2397	0.0179871	8.7	88	9.15552e-05
10.5397	0.017984	9	91	-0.000101738
10.8397	0.0179749	9.3	94	1.52302e-05
11.1397	0.0179749	9.6	97	-4.58211e-05
11.4397	0.01796875	9.9	100	0.000116999
11.7397	0.01796875	10.2	103	-4.34617e-08
12.0397	0.0179718	10.5	106	-3.55579e-05
12.3397	0.01796875	10.8	109	-5.59911e-05
12.6397	0.0179596	11.1	112	0.000152594
12.9397	0.0179565	11.4	115	0.000172978
13.2397	0.0179504	11.7	118	-0.000157667
13.5397	0.0179474	12	121	0.000356032
13.8397	0.0179443	12.3	124	-0.000101738
14.1397	0.0179352	12.6	127	0.000152563
14.4397	0.0179352	12.9	130	-0.000228888
14.7397	0.0179291	13.2	133	0.000116968
15.0397	0.0179291	13.5	136	0.000228857
15.3397	0.017926	13.8	139	-0.0001017
15.6397	0.0179199	14.1	142	2.53941e-05
15.9397	0.017926	14.4	145	-0.00011698
16.2397	0.0179169	14.7	148	0.000472975
16.5397	0.0179077	15	151	-0.000167849
16.8397	0.0179047	15.3	154	-0.000147466
17.1397	0.0179077	15.6	157	1.01266e-05
17.4397	0.0179016	15.9	160	-0.000294987
17.7397	0.0178955	16.2	163	0.000345893
18.0397	0.0178864	16.5	166	-0.000167874
18.3397	0.0178864	16.8	169	-9.16049e-05
18.6397	0.0178864	17.1	172	0.000137327
18.9397	0.0178833	17.4	175	3.56013e-05
19.2397	0.0178741	17.7	178	-7.62939e-05
19.5397	0.0178772	18	181	-0.000127163
19.8397	0.0178711	18.3	184	-0.000432351
20.1397	0.0178741	18.6	187	-0.000172891
20.4397	0.0178619	18.9	190	-8.64329e-05
20.7397	0.0178619	19.2	193	-4.57403e-05
21.0397	0.0178741	19.5	196	0.000818924
21.3397	0.0178589	19.8	199	-9.6665e-05
21.6397	0.0178528	20.1	202	-0.000111914
21.9397	0.0178528	20.4	205	0.000183135
22.2397	0.0178375	20.7	208	-0.000325516
22.5397	0.0178375	21	211	-4.57466e-05
22.8397	0.0178406	21.3	214	1.01576e-05
23.1397	0.0178406	21.6	217	0.000183123
23.4397	0.0178345	21.9	220	-0.00011187
23.7397	0.0178314	22.2	223	0.000310255
24.0397	0.0178192	22.5	226	-0.000178013
24.3397	0.0178192	22.8	229	1.24176e-08
24.6397	0.0178223	23.1	232	0.000101713
24.9397	0.0178223	23.4	235	0.000228907
25.2397	0.0178101	23.7	238	5.09123e-06
25.5397	0.017807	24	241	-0.000147484
25.8397	0.017807	24.3	244	-0.000228907
26.1397	0.0177979	24.6	247	-7.62691e-05
26.4397	0.017804	24.9	250	6.61549e-05
26.7397	0.0177948	25.2	253	-0.000350984
27.0397	0.0177887	25.5	256	-0.000340802
27.3397	0.0177856	25.8	259	0.000127119
27.6397	0.0177917	26.1	262	2.03215e-05
27.9397	0.0177826	26.4	265	-0.000122065
28.2397	0.0177795	26.7	268	-5.59601e-05
28.5397	0.0177673	27	271	-4.06926e-05
28.8397	0.0177765	27.3	274	0.000122084
29.1397	0.0177673	27.6	277	-7.62691e-05
29.4397	0.0177704	27.9	280	1.01762e-05
29.7397	0.0177612	28.2	283	-0.000396712
30.0397	0.0177582	28.5	286	-0.000239064
30.3397	0.0177582	28.8	289	-4.5759e-05
30.6397	0.017746	29.1	292	-0.000178007
30.9397	0.0177673	29.4	295	0.000437473
31.2397	0.0177582	29.7	298	-0.000305132
31.5397	0.0177521	30	301	-0.000111895
31.8397	0.0177521	30.3	304	9.15862e-05
32.1397	0.017749	30.6	307	-1.01887e-05
32.4397	0.0177551	30.9	310	0.000249234
32.7397	0.017746	31.2	313	-7.62877e-05
33.0397	0.017749	31.5	316	0.0001017
33.3397	0.0177338	31.8	319	-5.07881e-06
33.6397	0.0177216	32.1	322	-0.000178032
33.9397	0.0177338	32.4	325	8.64702e-05
34.2397	0.0177338	32.7	328	-0.000137302
34.5397	0.0177246	33	331	-0.000122078
34.8397	0.0177216	33.3	334	3.55703e-05
35.1397	0.0177246	33.6	337	0.000101669
35.4397	0.0177246	33.9	340	-0.000137333
35.7397	0.0177124	34.2	343	-0.000269506
36.0397	0.0177216	34.5	346	0.000305138
36.3397	0.0177155	34.8	349	0.00020856
36.6397	0.0177063	35.1	352	-3.05225e-05
36.9397	0.0177032	35.4	355	0.000356007
37.2397	0.0177124	35.7	358	0.000122103
37.5397	0.0177124	36	361	0.000320487
37.8397	0.0176971	36.3	364	-5.07881e-06
38.1397	0.017691	36.6	367	-6.61239e-05
38.4397	0.0177063	36.9	370	0.000279788
38.7397	0.0176941	37.2	373	-0.000132254
39.0397	0.0176971	37.5	376	1.01638e-05
39.3397	0.017691	37.8	379	-2.03525e-05
39.6397	0.0176849	38.1	382	-0.000249203
39.9397	0.017688	38.4	385	-8.14348e-05
40.2397	0.017691	38.7	388	5.59663e-05
40.5397	0.0176819	39	391	0.000106835
40.8397	0.017691	39.3	394	0.000442527
41.1397	0.0176819	39.6	397	0.000289921
41.4397	0.0176819	39.9	400	0.000320462
41.7397	0.0176758	40.2	403	-2.03525e-05
42.0397	0.017691	40.5	406	0.000417077
42.3397	0.0176788	40.8	409	-0.000178025
42.6397	0.0176727	41.1	412	-0.000111926
42.9397	0.0176788	41.4	415	0.000157642
43.2397	0.0176819	41.7	418	5.59849e-05
43.5397	0.0176758	42	421	-2.03277e-05
43.8397	0.0176758	42.3	424	0.000137333
44.1397	0.0176636	42.6	427	-0.000178025
44.4397	0.0176697	42.9	430	0.000294975
44.7397	0.0176666	43.2	433	0.000401835
45.0397	0.0176697	43.5	436	0.000376391
45.3397	0.0176605	43.8	439	6.10202e-05
45.6397	0.0176514	44.1	442	-0.000167793
45.9397	0.0176575	44.4	445	-2.54437e-05
46.2397	0.0176544	44.7	448	3.56013e-05
46.5397	0.0176483	45	451	7.12275e-05
46.8397	0.0176514	45.3	454	0.00023907
47.1397	0.0176453	45.6	457	-0.00043237
47.4397	0.0176422	45.9	460	-5.59601e-05
47.7397	0.0176392	46.2	463	-0.000147534
48.0397	0.0176392	46.5	466	9.15676e-05
48.3397	0.0176422	46.8	469	1.01576e-05
48.6397	0.0176392	47.1	472	-0.000239077
48.9397	0.0176361	47.4	475	-1.01576e-05
49.2397	0.0176361	47.7	478	-0.000366208
49.5397	0.0176361	48	481	-0.000137327
49.8397	0.0176361	48.3	484	4.58086e-05
50.1397	0.017627	48.6	487	1.52116e-05
50.4397	0.0176239	48.9	490	-1.017e-05
50.7397	0.01763	49.2	493	0.00020345
51.0397	0.0176239	49.5	496	-0.000249203
51.3397	0.017627	49.8	499	0.000147497
51.6397	0.0176239	50.1	502	0.00031023
51.9397	0.0176208	50.4	505	-0.000239039
52.2397	0.0176178	50.7	508	-0.000147509
52.5397	0.0176178	51	511	0.000320431
52.8397	0.0176147	51.3	514	-0.000193311
53.1397	0.0176056	51.6	517	-0.000122047
53.4397	0.0176117	51.9	520	-0.000208604
53.7397	0.0176025	52.2	523	1.52364e-05
54.0397	0.0176117	52.5	526	0.000305182
54.3397	0.0176086	52.8	529	0.000218737
54.6397	0.0176025	53.1	532	2.54561e-05
54.9397	0.0176025	53.4	535	0.000228888
55.2397	0.0175934	53.7	538	1.52551e-05
55.5397	0.0175934	54	541	-9.15676e-05
55.8397	0.0176025	54.3	544	7.63188e-05
56.1397	0.0175934	54.6	547	-0.000396737
56.4397	0.0175903	54.9	550	-5.59538e-05
56.7397	0.0175873	55.2	553	-1.017e-05
57.0397	0.0175873	55.5	556	4.57528e-05
57.3397	0.0175842	55.8	559	-0.000101669
57.6397	0.0175842	56.1	562	0.000137333
57.9397	0.0175903	56.4	565	-0.00011698
58.2397	0.0175812	56.7	568	1.52364e-05
58.5397	0.0175751	57	571	-0.000249234
58.8397	0.017569	57.3	574	-0.000294981
59.1397	0.017572	57.6	577	-0.000264527
59.4397	0.0175781	57.9	580	0.00015766
59.7397	0.017569	58.2	583	0.000106816
60.0397	0.017569	58.5	586	-0.000274635
60.3397	0.0175659	58.8	589	-5.59849e-05
60.6397	0.0175598	59.1	592	0.000117011
60.9397	0.0175629	59.4	595	1.017e-05
61.2397	0.0175629	59.7	598	0.000137314
61.4397	0.0175629	59.9	600	0.000183135

File: OCP_p32_1.txt
Time (s)	WE(1).Potential (V)	Corrected time (s)	Index	dWE(1).Potential/dt (V/s)	Cutoffs	OCP value (V)
1.58475	0.0533752	0	1	0	dWE(1).Potential/dt < 1E-06 V/s	0.0534147
1.68475	0.0534058	0.1	2	0.000305176
1.78475	0.0533752	0.2	3	-0.000610351	dWE(1).Potential/dt < 1E-06 V/s
1.88475	0.0533752	0.3	4	0.000457764
1.98475	0.0534058	0.4	5	0.000457764
2.08475	0.0534058	0.5	6	-0.000356038	dWE(1).Potential/dt < 1E-06 V/s
2.18475	0.0533752	0.6	7	-0.000457764	dWE(1).Potential/dt < 1E-06 V/s
2.28475	0.0533752	0.7	8	0.000356038
2.38475	0.0534058	0.8	9	0.000457764
2.48475	0.0534058	0.9	10	-0.000356038	dWE(1).Potential/dt < 1E-06 V/s
2.58475	0.0534058	1	11	0.000101725
2.68475	0.0533752	1.1	12	-0.000559489	dWE(1).Potential/dt < 1E-06 V/s
2.78475	0.0534058	1.2	13	0.000915527
2.88475	0.0533752	1.3	14	-0.00101725	dWE(1).Potential/dt < 1E-06 V/s
2.98475	0.0533752	1.4	15	0.000457764
3.08475	0.0534058	1.5	16	0.000457764
3.18475	0.0533752	1.6	17	-0.000915527	dWE(1).Potential/dt < 1E-06 V/s
3.28475	0.0534058	1.7	18	0.00101725
3.38475	0.0534058	1.8	19	-0.000457764	dWE(1).Potential/dt < 1E-06 V/s
3.48475	0.0534363	1.9	20	0.000661214
3.58475	0.0534058	2	21	-0.000915527	dWE(1).Potential/dt < 1E-06 V/s
3.68475	0.0534058	2.1	22	0.000457764
3.78475	0.0534058	2.2	23	-0.000101725	dWE(1).Potential/dt < 1E-06 V/s
3.88475	0.0534058	2.3	24	0	dWE(1).Potential/dt < 1E-06 V/s
3.98475	0.0534058	2.4	25	0	dWE(1).Potential/dt < 1E-06 V/s
4.08475	0.0534058	2.5	26	0	dWE(1).Potential/dt < 1E-06 V/s
4.18475	0.0534058	2.6	27	0	dWE(1).Potential/dt < 1E-06 V/s , dWE(1).Potential/dt > -1E-06 V/s
4.28475	0.0534058	2.7	28	0	dWE(1).Potential/dt < 1E-06 V/s , dWE(1).Potential/dt > -1E-06 V/s
4.38475	0.0534363	2.8	29	0.000559489
4.48475	0.0534363	2.9	30	-0.000356038	dWE(1).Potential/dt < 1E-06 V/s
4.58475	0.0534058	3	31	-0.000457764	dWE(1).Potential/dt < 1E-06 V/s
4.68475	0.0534363	3.1	32	0.000915527
4.78475	0.0534363	3.2	33	-0.000457764	dWE(1).Potential/dt < 1E-06 V/s
4.88475	0.0534363	3.3	34	0.000101725
4.98475	0.0534058	3.4	35	-0.000559489	dWE(1).Potential/dt < 1E-06 V/s
5.08475	0.0534363	3.5	36	0.000915527
5.18475	0.0534058	3.6	37	-0.00101725	dWE(1).Potential/dt < 1E-06 V/s
5.28475	0.0534363	3.7	38	0.00101725
5.38475	0.0534058	3.8	39	-0.00101725	dWE(1).Potential/dt < 1E-06 V/s
5.48475	0.0534058	3.9	40	0.000457764
5.58475	0.0534058	4	41	-0.000101725	dWE(1).Potential/dt < 1E-06 V/s
5.68475	0.0534058	4.1	42	0	dWE(1).Potential/dt < 1E-06 V/s
5.78475	0.0534058	4.2	43	0	dWE(1).Potential/dt < 1E-06 V/s
5.88475	0.0534058	4.3	44	0	dWE(1).Potential/dt < 1E-06 V/s
5.98475	0.0534058	4.4	45	0	dWE(1).Potential/dt < 1E-06 V/s , dWE(1).Potential/dt > -1E-06 V/s
6.08475	0.0534363	4.5	46	0.000559489
6.18475	0.0534363	4.6	47	-0.000356038	dWE(1).Potential/dt < 1E-06 V/s
6.28475	0.0534363	4.7	48	0.000101725
6.38475	0.0534058	4.8	49	-0.000559489	dWE(1).Potential/dt < 1E-06 V/s
6.48475	0.0534363	4.9	50	0.000915527
6.58475	0.0534058	5	51	-0.00101725	dWE(1).Potential/dt < 1E-06 V/s
6.68475	0.0534363	5.1	52	0.00101725
6.78475	0.0534058	5.2	53	-0.00101725	dWE(1).Potential/dt < 1E-06 V/s
6.88475	0.0534058	5.3	54	0.000457764
6.98475	0.0534058	5.4	55	-0.000101725	dWE(1).Potential/dt < 1E-06 V/s
7.08475	0.0534058	5.5	56	0	dWE(1).Potential/dt < 1E-06 V/s
7.18475	0.0534363	5.6	57	0.000559489
7.28475	0.0534058	5.7	58	-0.000915527	dWE(1).Potential/dt < 1E-06 V/s
7.38475	0.0534363	5.8	59	0.00101725
7.48475	0.0534058	5.9	60	-0.00101725	dWE(1).Potential/dt < 1E-06 V/s
7.58475	0.0534363	6	61	0.00101725
7.68475	0.0534363	6.1	62	-0.000457764	dWE(1).Potential/dt < 1E-06 V/s
7.78475	0.0534058	6.2	63	-0.000457764	dWE(1).Potential/dt < 1E-06 V/s
7.88475	0.0534363	6.3	64	0.000915527
7.98475	0.0534363	6.4	65	-0.000457764	dWE(1).Potential/dt < 1E-06 V/s
8.08475	0.0534058	6.5	66	-0.000457764	dWE(1).Potential/dt < 1E-06 V/s
8.18475	0.0534058	6.6	67	0.000356038
8.28475	0.0534363	6.7	68	0.000457764
8.38475	0.0534058	6.8	69	-0.000915527	dWE(1).Potential/dt < 1E-06 V/s
8.48475	0.0534363	6.9	70	0.00101725
8.58475	0.0534058	7	71	-0.00101725	dWE(1).Potential/dt < 1E-06 V/s
8.68475	0.0534058	7.1	72	0.000457764
8.78475	0.0534058	7.2	73	-0.000101725	dWE(1).Potential/dt < 1E-06 V/s
8.88475	0.0534363	7.3	74	0.000559489
8.98475	0.0534363	7.4	75	-0.000356038	dWE(1).Potential/dt < 1E-06 V/s
9.08475	0.0534363	7.5	76	0.000101725
9.18475	0.0534058	7.6	77	-0.000559489	dWE(1).Potential/dt < 1E-06 V/s
9.28475	0.0534058	7.7	78	0.000356038
9.38475	0.0534058	7.8	79	-0.000101725	dWE(1).Potential/dt < 1E-06 V/s
9.48475	0.0534058	7.9	80	0	dWE(1).Potential/dt < 1E-06 V/s
9.58475	0.0533752	8	81	-0.000559489	dWE(1).Potential/dt < 1E-06 V/s
9.68475	0.0534058	8.1	82	0.000915527
9.78475	0.0534058	8.2	83	-0.000457764	dWE(1).Potential/dt < 1E-06 V/s
9.88475	0.0534058	8.3	84	0.000101725
9.98475	0.0534058	8.4	85	0	dWE(1).Potential/dt < 1E-06 V/s
10.0847	0.0534058	8.5	86	0	dWE(1).Potential/dt < 1E-06 V/s
10.1847	0.0534058	8.6	87	0	dWE(1).Potential/dt < 1E-06 V/s
10.2847	0.0534058	8.7	88	0	dWE(1).Potential/dt < 1E-06 V/s
10.3847	0.0534058	8.8	89	0	dWE(1).Potential/dt < 1E-06 V/s , dWE(1).Potential/dt > -1E-06 V/s
10.4847	0.0534058	8.9	90	0	dWE(1).Potential/dt < 1E-06 V/s , dWE(1).Potential/dt > -1E-06 V/s

File: Z_p27_1.txt
Index	Frequency (Hz)	Z' (Ω)	-Z'' (Ω)	Z (Ω)	-Phase (°)	Time (s)
1	1000000	2283.19	4278.78	4849.83	61.9153	70.0321
2	794330	3157.5	4719.96	5678.71	56.2188	71.4871
3	630960	4307.96	5151.14	6715.11	50.0939	72.8871
4	501190	5571.41	5586.45	7889.81	45.0773	74.4221
5	398110	6914.28	6018.13	9166.52	41.036	79.4122
6	316230	8170.33	5924.44	10092.2	35.9465	80.7323
7	251190	9113.36	5633.88	10714.2	31.7244	84.8273
8	199530	10101.2	5472.12	11488.2	28.4458	86.1824
9	158490	11035.5	5224.98	12209.9	25.3362	87.6124
10	125890	11902.7	4916.33	12878.1	22.4427	88.9424
11	100000	12655.7	4598.45	13465.3	19.9686	90.3774
12	79433	13400.9	4263.19	14062.7	17.6472	91.7275
13	63096	13989	3909.35	14525	15.6135	93.1375
14	50119	14514.2	3526.2	14936.4	13.6553	94.5825
15	39811	15047.6	3156.88	15375.1	11.8484	95.9375
16	31623	15387.3	2901.8	15658.5	10.6797	97.2726
17	25119	15715.1	2626.9	15933.1	9.48972	98.7026
18	19953	16018.8	2357.03	16191.3	8.37051	100.098
19	15849	16322.3	2185.6	16467.9	7.62671	101.428
20	12589	16576.4	2002.44	16696.9	6.88799	102.788
21	10000	16770.3	1864.26	16873.6	6.34323	105.033
22	7943.3	16984.1	1741.31	17073.1	5.85385	106.293
23	6309.6	17182.8	1635.11	17260.4	5.43589	107.648
24	5011.9	17381.1	1533.86	17448.7	5.0432	109.048
25	3981.1	17562	1484.94	17624.6	4.8331	110.443
26	3162.3	17747.6	1438.83	17805.8	4.63494	111.778
27	2511.9	17920.2	1399.46	17974.7	4.46542	113.198
28	1995.3	18099	1371.46	18150.8	4.33334	114.523
29	1584.9	18283.7	1362.11	18334.3	4.26059	115.733
30	1258.9	18497	1388.7	18549.1	4.29355	117.178
31	1000	18653.3	1353.45	18702.4	4.15	118.493
32	794.33	18831.9	1344.19	18879.8	4.08276	119.943
33	630.96	19027.7	1350.8	19075.6	4.06069	121.283
34	501.19	19223.6	1356.19	19271.4	4.03542	122.603
35	398.11	19427.3	1367.95	19475.4	4.02778	123.883
36	316.23	19623.8	1378.75	19672.2	4.01894	125.248
37	251.19	19829.3	1398.33	19878.5	4.03375	126.678
38	199.53	20049.9	1408.65	20099.4	4.01882	128.113
39	158.49	20250.3	1426.04	20300.4	4.02815	129.523
40	125.89	20456.6	1438.82	20507.1	4.02328	130.968
41	100	20665.4	1450.56	20716.3	4.01516	132.293
42	79.433	20885.4	1467.56	20936.9	4.01941	133.738
43	63.096	21159.9	1540.38	21215.9	4.16362	135.253
44	50.119	21545	1726.67	21614	4.58205	145.113
45	39.811	21572.3	1514.82	21625.4	4.01675	154.159
46	31.623	21785.5	1511.75	21837.9	3.96954	155.844
47	25.119	22011.2	1520.27	22063.6	3.95103	157.529
48	19.953	22262.2	1543.18	22315.6	3.96531	159.509
49	15.849	22498.9	1556.58	22552.7	3.95769	161.509
50	12.589	22693.3	1537.18	22745.3	3.87514	163.709
51	10	22939.5	1586.38	22994.3	3.95599	166.094
52	7.9433	23143.3	1614.4	23199.5	3.9903	168.519
53	6.3096	23389.4	1648.86	23447.5	4.03244	170.959
54	5.0119	23589.5	1675.1	23648.9	4.06178	173.374
55	3.9811	23788.1	1677.85	23847.2	4.03459	175.809
56	3.1623	23951.1	1659.51	24008.5	3.96354	178.389
57	2.5119	24578.2	2288.06	24684.5	5.3185	180.974
58	1.9953	24374.4	1933.27	24451	4.53496	183.614
59	1.5849	24450.4	1643.35	24505.6	3.84515	186.324
60	1.2589	24418.3	2445.58	24540.4	5.7193	189.209
61	1	25024.5	2413.52	25140.7	5.50892	195.924
62	0.79433	25241.9	2683.82	25384.1	6.06912	199.104
63	0.63096	25432.3	2997.25	25608.3	6.72142	202.605
64	0.50119	25673.3	3445.11	25903.4	7.64289	206.415
65	0.39811	25875.8	4010.26	26184.7	8.80968	210.64
66	0.31623	26190.9	4699.89	26609.3	10.1733	215.465
67	0.25119	26400.1	5519.01	26970.8	11.8078	220.9
68	0.19953	26737.5	6503.77	27517.1	13.6714	227.21
69	0.15849	27095.2	7850.24	28209.5	16.1578	234.44
70	0.12589	27754.3	9463.8	29323.5	18.8286	242.98
71	0.1	28077.7	11111.3	30196.3	21.5904	253.21

File: Z_p28_1.txt
Index	Frequency (Hz)	Z' (Ω)	-Z'' (Ω)	Z (Ω)	-Phase (°)	Time (s)
1	1000000	2292.52	4214.51	4797.68	61.4556	70.3531
2	794330	3156.36	4603.46	5581.62	55.5635	71.7931
3	630960	4284.05	5120.46	6676.24	50.0824	73.2381
4	501190	5477.43	5482.15	7749.59	45.0247	74.7482
5	398110	6837.84	5793.65	8962.28	40.2744	79.7333
6	316230	8020.93	5774.69	9883.44	35.7521	81.0933
7	251190	8947.39	5447.34	10475.2	31.3338	85.2984
8	199530	9945.81	5239.65	11241.6	27.7811	86.6634
9	158490	10844.8	4974.39	11931.2	24.6405	87.9584
10	125890	11664.6	4658.86	12560.5	21.7719	89.2584
11	100000	12371.8	4330.58	13107.9	19.2919	90.9835
12	79433	13018.8	3977.91	13613	16.9905	92.5035
13	63096	13599.9	3639.37	14078.5	14.9814	93.8485
14	50119	14069	3291.19	14448.9	13.1665	95.1836
15	39811	14502.4	2990.96	14807.6	11.6532	96.5386
16	31623	14855.1	2649.43	15089.5	10.1124	97.9536
17	25119	15147.8	2391.52	15335.4	8.97177	99.2736
18	19953	15446.1	2146.1	15594.5	7.91013	100.559
19	15849	15677.9	1973.87	15801.6	7.17586	101.874
20	12589	15898.6	1805.33	16000.8	6.47835	103.219
21	10000	16061.9	1685.43	16150.1	5.99029	105.769
22	7943.3	16257.8	1568.8	16333.3	5.5117	107.079
23	6309.6	16438.2	1475.51	16504.3	5.12918	108.404
24	5011.9	16622.2	1406.43	16681.6	4.83637	109.719
25	3981.1	16780.6	1345.05	16834.4	4.58275	111.089
26	3162.3	16941.1	1303.26	16991.1	4.39903	112.494
27	2511.9	17102.8	1274.5	17150.2	4.2618	113.864
28	1995.3	17271.3	1256.32	17316.9	4.1604	115.199
29	1584.9	17431.8	1245.93	17476.3	4.08825	116.504
30	1258.9	17608.8	1233.43	17651.9	4.00682	117.804
31	1000	17774.2	1242.88	17817.6	3.99998	119.139
32	794.33	17950.6	1248.69	17994	3.97925	120.574
33	630.96	18120.4	1258.95	18164	3.97436	121.914
34	501.19	18317.9	1272.74	18362.1	3.97456	123.779
35	398.11	18501.2	1287.5	18545.9	3.98079	125.009
36	316.23	18692.6	1301.24	18737.8	3.9821	126.329
37	251.19	18882.7	1316.33	18928.6	3.98767	127.749
38	199.53	19089.2	1332.47	19135.6	3.99289	129.059
39	158.49	19281.3	1345.31	19328.2	3.99121	130.459
40	125.89	19484.6	1357.33	19531.8	3.98487	131.884
41	100	19676.3	1366.54	19723.7	3.97288	133.249
42	79.433	19885.2	1375.82	19932.8	3.95787	134.629
43	63.096	20112.1	1395.19	20160.5	3.96827	136.144
44	50.119	20252.7	1394.34	20300.6	3.93844	154.345
45	39.811	20561.3	1401.19	20609	3.8985	163.405
46	31.623	20781	1405.27	20828.5	3.86861	165.05
47	25.119	20992	1383.94	21037.6	3.77186	166.635
48	19.953	21190.6	1378.62	21235.4	3.72231	168.545
49	15.849	21394.2	1361.17	21437.4	3.64045	170.51
50	12.589	21614.5	1361.72	21657.3	3.60489	172.485
51	10	21812	1345.63	21853.4	3.53024	174.85
52	7.9433	22003.8	1340.14	22044.6	3.48528	177.21
53	6.3096	22212.7	1345.79	22253.4	3.4671	179.57
54	5.0119	22371.5	1351.24	22412.3	3.45646	182.075
55	3.9811	22515	1320.03	22553.6	3.35536	184.52
56	3.1623	22722.8	1318.37	22761	3.32057	187.095
57	2.5119	22728.1	1478.27	22776.2	3.72136	189.665
58	1.9953	22920	1257.93	22954.5	3.14144	192.315
59	1.5849	23224.1	1483.32	23271.4	3.6545	195.075
60	1.2589	23445.6	1649.2	23503.6	4.02364	198.035
61	1	23419.5	1831.24	23491	4.47103	203.131
62	0.79433	23553	2039.15	23641.1	4.94817	206.406
63	0.63096	23701	2309.15	23813.2	5.56468	210.381
64	0.50119	23848.4	2688.31	23999.4	6.43152	214.361
65	0.39811	23987.5	3136.82	24191.8	7.45022	218.576
66	0.31623	24182.1	3789.77	24477.2	8.90684	223.301
67	0.25119	24455.9	4419.86	24852.1	10.2444	228.731
68	0.19953	24734.5	5276.37	25291	12.0419	234.921
69	0.15849	24996.1	6329.14	25784.9	14.2089	242.251
70	0.12589	25350.8	7795.91	26522.4	17.0938	250.836
71	0.1	26005.8	9265.62	27607.1	19.6105	261.347

File: Z_p29_1.txt
Index	Frequency (Hz)	Z' (Ω)	-Z'' (Ω)	Z (Ω)	-Phase (°)	Time (s)
1	1000000	2238.38	3967.73	4555.57	60.5706	70.0111
2	794330	2991.03	4357.07	5284.91	55.5313	71.4211
3	630960	4010.18	4851.09	6294.02	50.421	72.8811
4	501190	5109.24	5231.85	7312.76	45.6793	74.4062
5	398110	6340.9	5528.38	8412.49	41.0838	79.8213
6	316230	7539.53	5579.4	9379.46	36.5022	81.2663
7	251190	8351.91	5461.25	9978.96	33.1804	85.6114
8	199530	9357.75	5392.06	10800.1	29.9511	86.9964
9	158490	10295.4	5250.37	11556.9	27.0203	88.4014
10	125890	11173.8	5042.39	12258.8	24.2882	89.7414
11	100000	12012.1	4815.87	12941.5	21.8468	91.2115
12	79433	12790.2	4528.68	13568.2	19.4978	92.7115
13	63096	13489.4	4233.96	14138.3	17.4256	94.1465
14	50119	14100.7	3857.52	14618.8	15.3	95.5616
15	39811	14663.1	3539.55	15084.3	13.5711	96.9016
16	31623	15153.7	3160.81	15479.9	11.782	98.2366
17	25119	15518	2840.57	15775.8	10.3732	99.5516
18	19953	15871.8	2552.65	16075.8	9.1366	101.022
19	15849	16166.2	2295.41	16328.4	8.0813	102.372
20	12589	16419.8	2064.13	16549	7.16506	103.707
21	10000	16619.7	1895.14	16727.4	6.5053	105.957
22	7943.3	16836.2	1729.36	16924.8	5.86467	107.232
23	6309.6	17012.4	1596.76	17087.2	5.362	108.527
24	5011.9	17192.8	1483.79	17256.7	4.93257	109.882
25	3981.1	17367.2	1392.37	17422.9	4.58376	111.227
26	3162.3	17527.8	1326.77	17578	4.32874	112.527
27	2511.9	17679.3	1270.83	17724.9	4.1115	113.892
28	1995.3	17835.4	1229.38	17877.7	3.9431	115.297
29	1584.9	17991.3	1200.21	18031.3	3.81659	116.612
30	1258.9	18155.2	1197.99	18194.7	3.77524	117.922
31	1000	18301.5	1170.18	18338.9	3.65844	119.247
32	794.33	18462.4	1162.08	18498.9	3.60164	120.742
33	630.96	18622.4	1156.27	18658.3	3.55295	122.157
34	501.19	18778.6	1154.92	18814.1	3.51936	123.512
35	398.11	18952.2	1161.95	18987.8	3.50839	124.847
36	316.23	19113.2	1164.29	19148.6	3.4859	126.172
37	251.19	19287.7	1175.81	19323.5	3.48855	127.522
38	199.53	19452.8	1182.2	19488.7	3.47773	128.782
39	158.49	19623	1194.57	19659.3	3.48362	130.142
40	125.89	19798.2	1205.48	19834.8	3.48434	131.572
41	100	19977.6	1211.73	20014.3	3.471	132.892
42	79.433	20148.9	1226.08	20186.1	3.48221	134.337
43	63.096	20370.8	1256.48	20409.5	3.52956	135.967
44	50.119	20615	1237.39	20652.1	3.43499	154.138
45	39.811	20724.6	1264.88	20763.1	3.49259	163.173
46	31.623	20901.4	1272.52	20940.1	3.48399	164.813
47	25.119	21096	1289.81	21135.4	3.4987	166.398
48	19.953	21270.6	1292.24	21309.8	3.47659	168.343
49	15.849	21476.1	1286.91	21514.7	3.42923	170.488
50	12.589	21635.9	1309.6	21675.5	3.46382	172.513
51	10	21834.7	1322.99	21874.8	3.46737	174.848
52	7.9433	22023.5	1351.73	22065	3.51222	177.243
53	6.3096	22190.8	1364.56	22232.7	3.51882	179.568
54	5.0119	22381.5	1381.17	22424.1	3.53126	181.958
55	3.9811	22573.6	1445.34	22619.8	3.66352	184.458
56	3.1623	22714.7	1560.54	22768.2	3.93016	187.003
57	2.5119	22862.7	1756.89	22930.1	4.39428	189.643
58	1.9953	23239.5	1531.86	23289.9	3.77126	192.378
59	1.5849	23330.7	1686.78	23391.6	4.1352	195.223
60	1.2589	23396.3	2256.6	23504.9	5.5092	198.148
61	1	23558.6	2158.65	23657.3	5.23532	203.204
62	0.79433	23749.5	2409.62	23871.4	5.7934	206.449
63	0.63096	23905	2744.73	24062.1	6.54991	210.044
64	0.50119	24107.7	3172.89	24315.6	7.49776	213.919
65	0.39811	24299.3	3728.25	24583.6	8.7229	218.129
66	0.31623	24593.4	4376.2	24979.7	10.0897	222.924
67	0.25119	24810.1	5211.39	25351.6	11.8626	228.344
68	0.19953	25105.2	6176.58	25853.8	13.8219	234.544
69	0.15849	25524.3	7444.72	26587.9	16.2604	241.794
70	0.12589	26136	8813.54	27582.1	18.635	250.394
71	0.1	26420.2	10512.4	28434.8	21.6973	260.57