Folder: Streamlit_cement_impedance/data/20200503 (part 5)

File: Z_p28_2.txt
Index	Frequency (Hz)	Z' (Ω)	-Z'' (Ω)	Z (Ω)	-Phase (°)	Time (s)
1	1000000	3462.63	6489.43	7355.44	61.9165	268.009
2	794330	4841.77	6778.11	8329.8	54.4608	269.519
3	630960	6409.81	7320.21	9729.91	48.7935	271.024
4	501190	7968.3	8033.81	11315.3	45.2346	272.734
5	398110	9998.9	9296.1	13652.7	42.914	274.354
6	316230	11790.8	9748.24	15298.7	39.5827	275.889
7	251190	13461.1	9733.54	16611.5	35.8702	278.224
8	199530	15345.6	9924.01	18274.9	32.8909	279.614
9	158490	17168.5	9927.47	19832.1	30.0381	281.139
10	125890	18956.5	9719.47	21303	27.1454	282.509
11	100000	20656	9379.53	22685.8	24.422	283.884
12	79433	22228.2	8927.17	23953.9	21.8811	285.249
13	63096	23657.1	8394.66	25102.4	19.5371	287.734
14	50119	24978.8	7797.02	26167.5	17.3355	289.234
15	39811	26139.5	7150.19	27099.8	15.2984	290.839
16	31623	27142.4	6464.59	27901.6	13.3967	292.384
17	25119	27936.9	5870.17	28547	11.8665	293.899
18	19953	28680.3	5340.52	29173.3	10.5482	295.399
19	15849	29334.4	4830.71	29729.5	9.3514	296.879
20	12589	29876.1	4382.33	30195.8	8.34481	298.439
21	10000	30355.3	3967.52	30613.5	7.44649	299.934
22	7943.3	30830.1	3648.11	31045.2	6.74841	301.354
23	6309.6	31247.5	3374.82	31429.3	6.1642	302.754
24	5011.9	31625.8	3145.07	31781.8	5.67919	304.179
25	3981.1	31982	2962.19	32118.9	5.29168	305.514
26	3162.3	32337.5	2812.1	32459.5	4.96999	307.024
27	2511.9	32685.4	2698.46	32796.6	4.71955	308.584
28	1995.3	33003.2	2610.83	33106.3	4.52316	309.924
29	1584.9	33330.9	2546.41	33428	4.3688	311.329
30	1258.9	33661.8	2503.31	33754.8	4.25306	312.604
31	1000	33976.9	2476.83	34067.1	4.16935	313.954
32	794.33	34319.7	2463.67	34408.1	4.10598	315.729
33	630.96	34657.4	2465.45	34745	4.06903	317.149
34	501.19	34990.7	2468.14	35077.6	4.0348	318.554
35	398.11	35352.8	2482.85	35439.8	4.01732	319.875
36	316.23	35703.1	2502.14	35790.7	4.00884	321.23
37	251.19	36068.2	2525.4	36156.5	4.00517	322.81
38	199.53	36452.3	2547.98	36541.3	3.99841	324.235
39	158.49	36806	2566.47	36895.4	3.98877	325.64
40	125.89	37191.2	2584.59	37280.9	3.97537	327.035
41	100	37537.8	2601.67	37627.9	3.96471	328.73
42	79.433	37943.9	2614.05	38033.9	3.94101	330.065
43	63.096	38331.6	2625.23	38421.4	3.91792	331.55
44	50.119	38739	2630.55	38828.2	3.88468	333.02
45	39.811	39101.2	2628.64	39189.4	3.84602	342.325
46	31.623	39520.4	2627.7	39607.6	3.80398	344.095
47	25.119	39923.8	2614.71	40009.4	3.74709	345.86
48	19.953	40321.2	2613.56	40405.8	3.70863	347.74
49	15.849	40686.3	2592.72	40768.8	3.64622	349.875
50	12.589	41084.5	2564.3	41164.4	3.5715	352.15
51	10	41460.2	2537.43	41537.8	3.50222	354.49
52	7.9433	41809.8	2494.63	41884.1	3.41458	356.825
53	6.3096	42182.9	2463.22	42254.8	3.34193	359.19
54	5.0119	42546.3	2427.5	42615.5	3.2655	361.72
55	3.9811	42872.1	2398.63	42939.1	3.20227	364.185
56	3.1623	43176.1	2385.37	43242	3.16223	366.66
57	2.5119	43461.2	2388.24	43526.8	3.14531	369.39
58	1.9953	43737.3	2413.53	43803.8	3.15852	372.17
59	1.5849	43966.6	2476.2	44036.3	3.22349	375.501
60	1.2589	44240.1	2580.85	44315.3	3.3387	378.871
61	1	44465.2	2746.32	44549.9	3.53429	382.301
62	0.79433	44717.6	2957.05	44815.2	3.78331	385.666
63	0.63096	44942	3225.47	45057.6	4.10505	390.586
64	0.50119	45176.5	3650.38	45323.7	4.61961	394.401
65	0.39811	45388.4	4128.76	45575.8	5.19762	398.826
66	0.31623	45610.8	4843.2	45867.2	6.06126	403.661
67	0.25119	46028.7	5620.74	46370.6	6.96214	409.146
68	0.19953	46391.3	6677.13	46869.3	8.19038	415.551
69	0.15849	46806.5	7996.78	47484.7	9.69525	423.346
70	0.12589	47150.2	9388.5	48075.9	11.2614	431.902
71	0.1	47711.4	11630.1	49108.4	13.6992	442.067

File: Z_p28_3.txt
Index	Frequency (Hz)	Z' (Ω)	-Z'' (Ω)	Z (Ω)	-Phase (°)	Time (s)
1	1000000	3447.24	6478.41	7338.48	61.982	503.194
2	794330	4851.2	6771.02	8329.51	54.3797	506.1
3	630960	6392.86	7327.11	9723.94	48.8955	508.786
4	501190	7929.88	8052.63	11301.7	45.44	511.377
5	398110	9987.54	9297.29	13645.2	42.9501	513.753
6	316230	11801	9753.2	15309.7	39.5729	516.084
7	251190	13458	9717.24	16599.5	35.8309	522.252
8	199530	15318.3	9912.38	18245.7	32.9067	524.558
9	158490	17102.1	9884.33	19753.1	30.0262	526.859
10	125890	18956.8	9695.5	21292.3	27.0876	529.26
11	100000	20653.1	9361.62	22675.8	24.3838	531.461
12	79433	22213.5	8918.43	23936.9	21.8749	533.697
13	63096	23649	8374.69	25088	19.5003	536.083
14	50119	24942.9	7777.59	26127.4	17.3183	538.504
15	39811	26106	7131.74	27062.6	15.2795	540.755
16	31623	27101.6	6446.49	27857.7	13.38	542.991
17	25119	27889.5	5860.56	28498.6	11.8672	545.158
18	19953	28623.4	5322.71	29114	10.5342	547.284
19	15849	29295.5	4816.96	29688.9	9.33739	549.68
20	12589	29850.6	4377.29	30169.8	8.3424	551.986
21	10000	30317.6	3959.75	30575.1	7.44123	554.287
22	7943.3	30781.7	3638.27	30995.9	6.74086	556.588
23	6309.6	31206.8	3369.07	31388.1	6.16177	558.779
24	5011.9	31579.5	3137.67	31735	5.67416	561.055
25	3981.1	31951	2955.84	32087.4	5.28548	563.296
26	3162.3	32284	2807.03	32405.8	4.96926	565.577
27	2511.9	32633.1	2693.22	32744.1	4.71794	568.003
28	1995.3	32955.1	2605.69	33057.9	4.52085	570.339
29	1584.9	33271.9	2540.3	33368.7	4.36606	572.545
30	1258.9	33600.9	2496.89	33693.5	4.24985	574.786
31	1000	33931.8	2472.76	34021.8	4.16803	577.132
32	794.33	34271.6	2462.22	34359.9	4.10932	579.383
33	630.96	34602.5	2458.78	34689.8	4.06448	581.609
34	501.19	34943.6	2467.15	35030.6	4.0386	583.805
35	398.11	35306.2	2480.79	35393.2	4.01929	585.796
36	316.23	35643.3	2497.49	35730.7	4.0081	587.967
37	251.19	36027	2520.34	36115.1	4.00171	590.263
38	199.53	36377.5	2540.21	36466.1	3.99443	592.394
39	158.49	36765.7	2564.52	36855.1	3.99009	594.685
40	125.89	37128.6	2581.09	37218.2	3.97667	597.026
41	100	37489.4	2596.44	37579.2	3.96185	599.418
42	79.433	37879.9	2610.04	37969.7	3.94162	601.734
43	63.096	38283.3	2623.27	38373.1	3.91993	603.99
44	50.119	38658.1	2625.2	38747.1	3.88489	606.391
45	39.811	39059.6	2628.35	39147.9	3.84967	616.527
46	31.623	39471.9	2621.32	39558.8	3.79942	619.383
47	25.119	39856.5	2609.75	39941.9	3.7463	622.004
48	19.953	40259.3	2610.93	40343.9	3.7106	624.78
49	15.849	40656	2599.65	40739	3.65865	627.816
50	12.589	41027.7	2569.76	41108.1	3.58403	630.692
51	10	41436.2	2537.31	41513.8	3.50408	634.003
52	7.9433	41757.7	2501.46	41832.5	3.42816	637.474
53	6.3096	42147	2465.57	42219.1	3.34795	640.82
54	5.0119	42476.2	2431.81	42545.7	3.27667	644.081
55	3.9811	42815.7	2406.86	42883.3	3.21747	647.292
56	3.1623	43101.8	2386.2	43167.8	3.16877	650.613
57	2.5119	43410.3	2393.12	43476.3	3.1554	654.3
58	1.9953	43669.4	2425.02	43736.7	3.17845	657.791
59	1.5849	43956.8	2484.16	44026.9	3.23455	661.522
60	1.2589	44178.9	2592.33	44254.9	3.35815	665.363
61	1	44434.2	2755.12	44519.5	3.54805	669.789
62	0.79433	44665	2977.2	44764.1	3.81348	673.995
63	0.63096	44903.5	3279.99	45023.2	4.17777	678.451
64	0.50119	45146.9	3662.13	45295.2	4.63744	683.117
65	0.39811	45386	4197.85	45579.8	5.28437	688.223
66	0.31623	45600.6	4900.8	45863.2	6.13416	693.889
67	0.25119	45900.3	5799.03	46265.2	7.20058	700.21
68	0.19953	46355.6	6684.61	46835.1	8.20565	707.177
69	0.15849	46784.6	8054.36	47472.8	9.7682	715.443
70	0.12589	47296.7	9653.16	48271.7	11.5355	724.969
71	0.1	47808.8	11389.8	49146.8	13.4002	736.23

File: Z_p29_1.txt
Index	Frequency (Hz)	Z' (Ω)	-Z'' (Ω)	Z (Ω)	-Phase (°)	Time (s)
1	1000000	3409.75	6111.24	6998.12	60.8408	25.7713
2	794330	4729.53	6370.8	7934.46	53.4107	27.3013
3	630960	6101.98	6900.62	9211.55	48.5148	28.8413
4	501190	7525.87	7502.15	10626.4	44.9095	30.3813
5	398110	9380.85	8577.43	12711.1	42.4384	32.1014
6	316230	10962.9	9017.92	14195.4	39.4401	33.5914
7	251190	12458.9	9080.57	15416.9	36.0862	36.0064
8	199530	14138.6	9348.87	16950	33.4738	37.6665
9	158490	15811.2	9480.29	18435.6	30.9466	39.3015
10	125890	17495.4	9492.8	19904.9	28.4837	40.6065
11	100000	19128.8	9387.25	21308	26.139	42.8016
12	79433	20727.3	9172.25	22666	23.8704	44.0566
13	63096	22262.2	8853.97	23958.2	21.6884	46.5516
14	50119	23732.1	8436.56	25187	19.5699	47.8017
15	39811	25115.9	7920.18	26335.1	17.5024	50.4067
16	31623	26306.7	7283.16	27296.3	15.475	51.7567
17	25119	27334.2	6696.58	28142.5	13.7657	53.2918
18	19953	28269.2	6102.35	28920.3	12.1813	54.6368
19	15849	29078.7	5525.38	29599	10.7588	55.9518
20	12589	29782.8	4992.47	30198.4	9.51595	57.3318
21	10000	30359	4475.23	30687.1	8.3856	59.0369
22	7943.3	30885.8	4052.68	31150.5	7.47535	60.4319
23	6309.6	31343.6	3684.39	31559.4	6.70426	61.7469
24	5011.9	31754.5	3368.51	31932.6	6.05529	63.0719
25	3981.1	32129.9	3109.57	32280	5.52794	64.587
26	3162.3	32478.7	2891.99	32607.2	5.08834	65.952
27	2511.9	32811.8	2714.24	32923.9	4.72883	67.322
28	1995.3	33124.5	2573.27	33224.3	4.44209	68.7521
29	1584.9	33420.7	2461.32	33511.2	4.21204	70.1521
30	1258.9	33727.8	2373.6	33811.3	4.02556	71.4971
31	1000	34020.4	2307.8	34098.6	3.88076	74.2822
32	794.33	34312.2	2259.57	34386.5	3.76768	75.8472
33	630.96	34617.1	2222.9	34688.4	3.67414	77.2272
34	501.19	34931.6	2200.76	35000.9	3.60498	78.6422
35	398.11	35234.3	2182.61	35301.8	3.5447	79.9273
36	316.23	35509.2	2171.92	35575.6	3.50013	81.2373
37	251.19	35825.1	2174.4	35891	3.4733	82.7523
38	199.53	36139.1	2169.6	36204.1	3.43562	84.1773
39	158.49	36438.3	2170.63	36502.9	3.40908	85.5024
40	125.89	36755.1	2171.49	36819.2	3.3811	86.9124
41	100	37046.4	2169.44	37109.8	3.35143	88.4674
42	79.433	37379.3	2174.45	37442.5	3.32929	89.8724
43	63.096	37705.5	2170.6	37767.9	3.29472	91.4675
44	50.119	38032.8	2169.09	38094.6	3.26416	92.8575
45	39.811	38341.7	2162.22	38402.6	3.22769	102.088
46	31.623	38665	2149.22	38724.7	3.18156	103.943
47	25.119	38982	2135.49	39040.5	3.13562	106.138
48	19.953	39313.1	2130.75	39370.8	3.10237	108.358
49	15.849	39629.3	2108.55	39685.3	3.04565	110.413
50	12.589	39910.2	2080.25	39964.4	2.98374	112.673
51	10	40237.6	2056.61	40290.2	2.92594	115.088
52	7.9433	40519.4	2026.2	40570	2.86274	117.413
53	6.3096	40811.7	2006.92	40861	2.81526	119.733
54	5.0119	41053.4	1983.38	41101.3	2.76593	124.103
55	3.9811	41333	1970.67	41380	2.72968	126.933
56	3.1623	41578.2	1974.61	41625	2.71902	129.513
57	2.5119	41818.5	1987.69	41865.7	2.7213	132.438
58	1.9953	42043.9	2027.78	42092.8	2.76124	135.073
59	1.5849	42290.7	2093.33	42342.5	2.83374	137.958
60	1.2589	42505.7	2194.12	42562.3	2.95496	140.933
61	1	42746.5	2351.39	42811.1	3.14855	144.173
62	0.79433	42962.8	2529.4	43037.2	3.36935	147.784
63	0.63096	43141.4	2743.6	43228.5	3.63886	151.224
64	0.50119	43398.1	3061.25	43505.9	4.03489	155.299
65	0.39811	43631.9	3428.54	43766.4	4.49299	159.669
66	0.31623	43829.2	3963.96	44008.1	5.16783	164.459
67	0.25119	44201.2	4547.44	44434.5	5.87395	169.994
68	0.19953	44492.7	5303.61	44807.7	6.79769	176.164
69	0.15849	44829.7	6222.94	45259.6	7.90289	183.569
70	0.12589	45069.4	7421.52	45676.4	9.3509	192.339
71	0.1	45680.2	9026.54	46563.5	11.1778	202.6

File: Z_p29_2.txt
Index	Frequency (Hz)	Z' (Ω)	-Z'' (Ω)	Z (Ω)	-Phase (°)	Time (s)
1	1000000	3411.13	6100	6988.98	60.786	233.253
2	794330	4702.83	6372.46	7919.9	53.5729	235.008
3	630960	6125.53	6838.16	9180.56	48.1465	236.423
4	501190	7517.55	7419.11	10562	44.6224	237.933
5	398110	9378.36	8576.05	12708.4	42.4414	239.318
6	316230	10957.9	8998.79	14179.4	39.3933	240.743
7	251190	12432.9	9068.14	15388.6	36.1056	243.073
8	199530	14125.4	9291.99	16907.6	33.3377	244.468
9	158490	15800.7	9456.21	18414.2	30.8992	246.138
10	125890	17468.9	9462.81	19867.3	28.4441	247.683
11	100000	19094.9	9354.58	21263.2	26.1002	249.263
12	79433	20689.7	9143.37	22620	23.842	250.698
13	63096	22227.6	8829.8	23917.2	21.6652	252.198
14	50119	23690.2	8409.16	25138.4	19.543	253.563
15	39811	25061.6	7890.58	26274.5	17.4764	254.968
16	31623	26275.6	7269.25	27262.6	15.4643	256.268
17	25119	27293.8	6672.79	28097.7	13.7382	257.563
18	19953	28228.1	6099.35	28879.5	12.1927	258.878
19	15849	29047.6	5517.08	29566.9	10.7542	260.263
20	12589	29714.4	4981.37	30129	9.51667	262.433
21	10000	30288.3	4460.14	30614.9	8.37696	263.853
22	7943.3	30814.7	4037.12	31078	7.46398	265.259
23	6309.6	31261.6	3667.89	31476	6.69187	266.669
24	5011.9	31676.7	3354.52	31853.8	6.04501	268.099
25	3981.1	32039.9	3094.25	32188.9	5.51623	269.414
26	3162.3	32406.5	2881.05	32534.4	5.08044	270.694
27	2511.9	32715.9	2703.98	32827.4	4.72477	271.969
28	1995.3	33035	2562.7	33134.3	4.43585	273.344
29	1584.9	33348	2453.57	33438.1	4.20794	274.639
30	1258.9	33635.9	2365.42	33718.9	4.02267	275.939
31	1000	33943.2	2300.81	34021.1	3.87781	277.369
32	794.33	34240.8	2251.22	34314.8	3.76159	278.809
33	630.96	34559.6	2217.15	34630.6	3.67075	280.209
34	501.19	34850.1	2194.08	34919.1	3.60245	281.514
35	398.11	35145.3	2177.44	35212.6	3.54526	282.804
36	316.23	35452.1	2168.38	35518.4	3.50005	284.119
37	251.19	35758.9	2166.9	35824.5	3.46773	285.669
38	199.53	36057.8	2162.81	36122.6	3.43259	287.004
39	158.49	36363.1	2166.04	36427.6	3.4089	288.459
40	125.89	36675.5	2165.39	36739.4	3.37893	289.949
41	100	36988.3	2167.52	37051.8	3.35371	291.349
42	79.433	37295.6	2169.72	37358.6	3.3295	292.834
43	63.096	37624.9	2164.23	37687	3.2921	294.424
44	50.119	37939.7	2164.72	38001.5	3.26558	295.779
45	39.811	38270.4	2160.07	38331.3	3.23047	304.999
46	31.623	38592.8	2145.77	38652.4	3.18238	306.614
47	25.119	38921.3	2130.09	38979.6	3.13257	308.284
48	19.953	39236.1	2127.18	39293.7	3.10325	310.159
49	15.849	39535.7	2103.65	39591.6	3.04577	312.199
50	12.589	39847	2075.63	39901	2.98184	314.199
51	10	40145.7	2053.14	40198.2	2.92768	316.539
52	7.9433	40432.3	2026.36	40483	2.86911	319.195
53	6.3096	40725.9	1997.86	40774.9	2.80847	321.705
54	5.0119	41006.9	1980.87	41054.7	2.76557	324.15
55	3.9811	41255.9	1966.58	41302.8	2.7291	326.96
56	3.1623	41517	1968.63	41563.6	2.71478	329.535
57	2.5119	41747.4	1988.13	41794.7	2.72653	332.095
58	1.9953	41986.7	2035.54	42036	2.77556	335.095
59	1.5849	42198.8	2092.39	42250.6	2.83863	337.86
60	1.2589	42410.1	2196.53	42466.9	2.96485	341.035
61	1	42653.2	2351.17	42718	3.15512	344.44
62	0.79433	42892	2521.15	42966.1	3.36392	347.765
63	0.63096	43119.4	2761.21	43207.8	3.66401	351.32
64	0.50119	43336.3	3055.25	43443.8	4.03274	355.1
65	0.39811	43560.7	3473.46	43699	4.55903	359.485
66	0.31623	43823.4	3960.36	44002	5.16385	364.345
67	0.25119	44075.4	4620.42	44316.9	5.98446	369.695
68	0.19953	44397.1	5297.4	44712	6.80428	376.681
69	0.15849	44708	6242.36	45141.7	7.94854	384.306
70	0.12589	45023.6	7542.98	45651.1	9.51065	392.961
71	0.1	45680.7	8979.36	46554.8	11.1207	403.291

File: Z_p29_3.txt
Index	Frequency (Hz)	Z' (Ω)	-Z'' (Ω)	Z (Ω)	-Phase (°)	Time (s)
1	1000000	3445.79	6122.14	7025.24	60.6274	482.289
2	794330	4708.06	6334.01	7892.12	53.3766	484.615
3	630960	6147.42	6843.56	9199.19	48.0673	487.521
4	501190	7551.34	7448.5	10606.7	44.6072	490.062
5	398110	9369.58	8547.85	12682.8	42.3741	492.514
6	316230	10963.4	8998.55	14183.4	39.3785	494.755
7	251190	12436	9040.63	15374.8	36.0162	496.886
8	199530	14114.6	9309.5	16908.3	33.4074	499.307
9	158490	15784	9438.63	18390.8	30.8789	501.568
10	125890	17441.6	9444.98	19834.7	28.4365	503.879
11	100000	19089.2	9345.85	21254.2	26.0859	506.525
12	79433	20670.6	9128.38	22596.5	23.8268	508.601
13	63096	22205.1	8811.28	23889.4	21.6438	510.842
14	50119	23664.6	8393.99	25109.2	19.53	513.108
15	39811	25036.3	7868.58	26243.7	17.4472	515.409
16	31623	26246.5	7258.06	27231.6	15.4579	517.745
17	25119	27254.2	6658.92	28055.9	13.7299	519.861
18	19953	28197	6075.27	28844	12.159	521.917
19	15849	29002.6	5502.79	29520	10.7433	524.213
20	12589	29685.8	4962.22	30097.7	9.48972	526.584
21	10000	30237.1	4443.03	30561.8	8.35921	528.855
22	7943.3	30768.2	4024.34	31030.2	7.45173	531.151
23	6309.6	31223.4	3659.63	31437.2	6.68501	533.267
24	5011.9	31626	3346.94	31802.6	6.04106	535.453
25	3981.1	32004.2	3088	32152.9	5.51125	537.629
26	3162.3	32338.8	2872.83	32466.2	5.07656	539.95
27	2511.9	32668.5	2698.28	32779.8	4.72167	542.201
28	1995.3	32984	2555.86	33082.8	4.43089	544.433
29	1584.9	33301.8	2447.25	33391.6	4.20294	546.429
30	1258.9	33601.8	2361.39	33684.7	4.01989	548.605
31	1000	33888.1	2294.78	33965.7	3.87395	550.921
32	794.33	34185.7	2247.15	34259.5	3.76084	553.142
33	630.96	34479.5	2212.03	34550.3	3.67079	555.313
34	501.19	34777.7	2188.94	34846.6	3.6015	557.559
35	398.11	35081.3	2172.21	35148.5	3.54319	559.8
36	316.23	35392.6	2163	35458.6	3.49726	561.941
37	251.19	35702.8	2161.95	35768.2	3.46526	564.172
38	199.53	35996.6	2159.36	36061.3	3.43294	566.403
39	158.49	36310.8	2161.92	36375.1	3.40733	568.604
40	125.89	36613	2164.13	36676.9	3.38272	570.8
41	100	36913.4	2163.93	36976.8	3.35494	573.016
42	79.433	37228.2	2162.77	37291	3.32485	575.222
43	63.096	37564.7	2165.09	37627	3.29866	577.438
44	50.119	37892.1	2161.21	37953.7	3.26439	579.764
45	39.811	38191.8	2153.93	38252.4	3.22794	589.84
46	31.623	38509.3	2146.88	38569.1	3.19093	592.376
47	25.119	38845.6	2126.95	38903.8	3.13404	595.007
48	19.953	39167.7	2126.24	39225.4	3.10728	597.663
49	15.849	39478.1	2097.5	39533.8	3.04131	600.57
50	12.589	39784.4	2075	39838.4	2.98562	603.446
51	10	40086.4	2049.86	40138.7	2.92733	606.707
52	7.9433	40390.6	2025.27	40441.3	2.87053	609.768
53	6.3096	40671.7	2000.28	40720.8	2.81561	613.039
54	5.0119	40937.9	1977.03	40985.6	2.76485	616.63
55	3.9811	41200.8	1968.71	41247.8	2.73569	619.951
56	3.1623	41433.8	1970.23	41480.6	2.72243	623.157
57	2.5119	41678.3	1993.12	41725.9	2.73788	626.408
58	1.9953	41907.3	2033.48	41956.6	2.778	630.124
59	1.5849	42135.9	2096.57	42188	2.84854	633.84
60	1.2589	42356.2	2200.98	42413.3	2.97462	637.716
61	1	42583.4	2352.69	42648.3	3.16231	641.942
62	0.79433	42831.4	2534.25	42906.3	3.38613	646.218
63	0.63096	43053.4	2764.62	43142.1	3.67413	650.704
64	0.50119	43242	3060.57	43350.2	4.04851	655.236
65	0.39811	43490.7	3469.11	43628.8	4.56064	660.322
66	0.31623	43771.4	3981.83	43952.2	5.19782	666.093
67	0.25119	44080.1	4619.66	44321.5	5.98284	672.449
68	0.19953	44289.7	5352.59	44612	6.891	679.63
69	0.15849	44679.4	6271.72	45117.4	7.9905	687.811
70	0.12589	45070.9	7441.47	45681.1	9.37529	697.342
71	0.1	45362.7	8955.36	46238.2	11.1676	708.459

File: Z_p30_1.txt
Index	Frequency (Hz)	Z' (Ω)	-Z'' (Ω)	Z (Ω)	-Phase (°)	Time (s)
1	1000000	3601.3	6121.96	7102.65	59.5334	61.2659
2	794330	4950.03	6288.18	8002.75	51.7903	62.7909
3	630960	6362.41	6717.38	9252.21	46.5546	64.151
4	501190	7822.42	7231.23	10652.7	42.751	65.646
5	398110	9684.28	8127.48	12642.8	40.0048	67.221
6	316230	11273.6	8395.06	14056	36.6737	68.7061
7	251190	12690.9	8227.44	15124.5	32.9551	70.2111
8	199530	14259.6	8250.62	16474.5	30.0538	71.7661
9	158490	15767.1	8108.91	17730.1	27.2164	73.1461
10	125890	17195.5	7853.57	18904.1	24.5472	75.6712
11	100000	18579.4	7551.33	20055.4	22.1185	77.1812
12	79433	19788.8	7121.98	21031.4	19.7937	78.7312
13	63096	20893.6	6645.61	21925	17.6442	80.2713
14	50119	21891.9	6149.17	22739.2	15.6894	81.6513
15	39811	22780.3	5636.93	23467.4	13.8985	83.0263
16	31623	23530.1	5106.61	24077.9	12.2447	84.3513
17	25119	24153.8	4664.8	24600.1	10.9309	85.8064
18	19953	24739.6	4249.72	25101.9	9.74705	87.1264
19	15849	25262.1	3869.43	25556.8	8.70839	88.6564
20	12589	25711.1	3538.69	25953.5	7.83653	90.1714
21	10000	26092.1	3225.56	26290.7	7.04728	91.6965
22	7943.3	26474.3	2986.14	26642.2	6.4354	93.0815
23	6309.6	26835.5	2783.11	26979.4	5.92098	94.4265
24	5011.9	27161.2	2615.37	27286.8	5.50009	95.8516
25	3981.1	27469.8	2477.13	27581.2	5.15279	97.2216
26	3162.3	27751.6	2366.27	27852.3	4.8736	98.5566
27	2511.9	28046.7	2283.22	28139.5	4.65406	99.9416
28	1995.3	28334.6	2220.43	28421.5	4.48081	101.302
29	1584.9	28615.5	2173.73	28697.9	4.34404	102.717
30	1258.9	28900.9	2142.89	28980.2	4.24049	104.037
31	1000	29185.9	2123.61	29263	4.1616	105.462
32	794.33	29479.3	2115.53	29555.1	4.10469	107.037
33	630.96	29769	2116.18	29844.1	4.06613	108.572
34	501.19	30083.9	2125.06	30158.8	4.04053	110.112
35	398.11	30369.3	2134.47	30444.2	4.02036	111.542
36	316.23	30672.8	2151.77	30748.2	4.01286	112.967
37	251.19	30993.7	2166.99	31069.4	3.99945	114.542
38	199.53	31307.5	2184.91	31383.6	3.99214	116.042
39	158.49	31616.4	2203.73	31693.1	3.98719	117.577
40	125.89	31945.4	2220.07	32022.4	3.97542	119.122
41	100	32277.1	2235.26	32354.4	3.96153	120.682
42	79.433	32616.3	2248.73	32693.7	3.94401	122.082
43	63.096	32929.6	2254.24	33006.7	3.91615	123.567
44	50.119	33271.3	2267.11	33348.4	3.89811	125.132
45	39.811	33603.3	2265.38	33679.5	3.85678	134.322
46	31.623	33948.8	2253.28	34023.5	3.79732	135.997
47	25.119	34299.8	2244.1	34373.2	3.7433	137.637
48	19.953	34629.2	2237.64	34701.5	3.69714	139.562
49	15.849	34979	2209.38	35048.7	3.61418	141.647
50	12.589	35333.8	2177.32	35400.8	3.52619	144.047
51	10	35629	2128.39	35692.5	3.41865	146.392
52	7.9433	35959.5	2075.85	36019.4	3.30387	148.663
53	6.3096	36256.5	2024.34	36312.9	3.19572	151.278
54	5.0119	36556	1963.16	36608.7	3.07398	153.743
55	3.9811	36822	1911.44	36871.6	2.97157	156.228
56	3.1623	37085.7	1860.77	37132.3	2.8724	158.773
57	2.5119	37294.2	1822.56	37338.7	2.7978	161.418
58	1.9953	37535.2	1797.97	37578.3	2.74242	164.068
59	1.5849	37760.6	1788.42	37803	2.71161	167.053
60	1.2589	37930.7	1808.39	37973.8	2.72957	171.633
61	1	38130.4	1862.9	38175.9	2.79701	175.113
62	0.79433	38305.8	1933.96	38354.6	2.89027	178.378
63	0.63096	38488.5	2056.91	38543.4	3.0591	182.198
64	0.50119	38638.2	2227.81	38702.4	3.29991	186.228
65	0.39811	38785.5	2461.22	38863.5	3.63096	190.468
66	0.31623	38968.8	2804.47	39069.5	4.11632	195.328
67	0.25119	39171.6	3166.96	39299.4	4.62222	200.999
68	0.19953	39355.3	3683.28	39527.3	5.34676	207.369
69	0.15849	39570.1	4322.49	39805.5	6.23405	214.879
70	0.12589	39706.7	5134.8	40037.4	7.36848	223.654
71	0.1	40049	6265.7	40536.2	8.89189	234.129

File: Z_p30_2.txt
Index	Frequency (Hz)	Z' (Ω)	-Z'' (Ω)	Z (Ω)	-Phase (°)	Time (s)
1	1000000	3609.1	6126.74	7110.73	59.4988	293.3
2	794330	4899.08	6281.3	7965.9	52.0477	294.95
3	630960	6369.25	6707.33	9249.63	46.481	296.53
4	501190	7826.99	7209.55	10641.4	42.6486	298.015
5	398110	9687.67	8141.21	12654.3	40.0426	299.515
6	316230	11267.9	8415.74	14063.8	36.7553	301.02
7	251190	12698.2	8242.77	15139	32.9888	304.45
8	199530	14256.4	8276.63	16484.8	30.1376	305.985
9	158490	15834.4	8127.12	17798.2	27.1695	307.345
10	125890	17215.5	7879.03	18932.8	24.5922	308.87
11	100000	18543.2	7526.23	20012.4	22.091	310.53
12	79433	19763.5	7101.12	21000.5	19.7636	312.05
13	63096	20852.8	6629.31	21881.2	17.636	313.585
14	50119	21840.7	6125.84	22683.5	15.6676	315.16
15	39811	22735.3	5617.53	23419	13.8789	316.77
16	31623	23494.5	5094.79	24040.6	12.2351	318.205
17	25119	24106	4631.91	24547	10.8767	319.651
18	19953	24691.3	4239.19	25052.6	9.74199	321.031
19	15849	25204.1	3869.18	25499.4	8.72754	322.521
20	12589	25661.1	3530.07	25902.7	7.83275	324.146
21	10000	26047.1	3217.64	26245.1	7.04216	325.771
22	7943.3	26439.2	2979.64	26606.6	6.42999	327.246
23	6309.6	26774.6	2775.8	26918.1	5.91886	328.566
24	5011.9	27103.3	2608.2	27228.5	5.49676	330.011
25	3981.1	27415.2	2471.82	27526.4	5.15201	331.461
26	3162.3	27710.6	2363.36	27811.2	4.87481	332.961
27	2511.9	28004.4	2277.22	28096.8	4.64887	334.466
28	1995.3	28279.3	2215.25	28365.9	4.4791	335.846
29	1584.9	28559	2168.39	28641.2	4.34194	337.171
30	1258.9	28846.9	2138.34	28926	4.23944	338.661
31	1000	29116.7	2118.46	29193.6	4.16137	340.096
32	794.33	29409.8	2110.19	29485.4	4.10401	341.476
33	630.96	29702.3	2109.76	29777.2	4.06291	342.831
34	501.19	30013.4	2117.69	30088	4.036	344.376
35	398.11	30312.3	2129.86	30387	4.01922	345.801
36	316.23	30627.6	2144.94	30702.7	4.00604	347.201
37	251.19	30926.8	2163.57	31002.4	4.00177	348.826
38	199.53	31251.9	2179.47	31327.8	3.98928	350.311
39	158.49	31566.7	2197.83	31643.2	3.98278	351.821
40	125.89	31882.8	2214.27	31959.6	3.97284	353.411
41	100	32199.6	2228.81	32276.6	3.95963	354.931
42	79.433	32544.1	2244.6	32621.5	3.9455	356.616
43	63.096	32866.8	2252.71	32943.9	3.92096	358.241
44	50.119	33210.3	2260.39	33287.1	3.89372	359.766
45	39.811	33573.6	2261.05	33649.7	3.85283	368.991
46	31.623	33908.8	2257.39	33983.8	3.80869	370.801
47	25.119	34243.1	2240.83	34316.4	3.74402	372.642
48	19.953	34584.9	2232.66	34656.9	3.69366	374.552
49	15.849	34925.6	2202.37	34994.9	3.60824	376.702
50	12.589	35248.2	2165.66	35314.7	3.51585	378.962
51	10	35598.9	2125.2	35662.3	3.41641	381.337
52	7.9433	35914.2	2074.82	35974.1	3.3064	383.897
53	6.3096	36228.1	2021.49	36284.5	3.19373	386.317
54	5.0119	36504.2	1963.92	36557	3.07953	388.867
55	3.9811	36777.2	1902.85	36826.3	2.96184	391.337
56	3.1623	37040	1857.44	37086.5	2.8708	394.067
57	2.5119	37263.3	1816.15	37307.5	2.79029	396.602
58	1.9953	37505.6	1792.92	37548.4	2.73688	399.277
59	1.5849	37706.5	1789.98	37749	2.71787	402.112
60	1.2589	37907.3	1803.89	37950.2	2.72447	405.042
61	1	38086.3	1857.97	38131.6	2.79284	410.207
62	0.79433	38267.2	1941.67	38316.5	2.90468	413.562
63	0.63096	38451.2	2047.75	38505.7	3.04845	417.257
64	0.50119	38603.3	2225.54	38667.4	3.29953	421.252
65	0.39811	38773.4	2449	38850.6	3.61412	425.477
66	0.31623	38923.4	2754.99	39020.8	4.04863	430.508
67	0.25119	39094.1	3206.36	39225.4	4.6887	435.993
68	0.19953	39257.5	3696.22	39431.2	5.37871	442.393
69	0.15849	39453.3	4366.04	39694.2	6.31485	449.903
70	0.12589	39751.6	5188.42	40088.8	7.43627	458.718
71	0.1	39939.6	6102.43	40403.1	8.68713	468.983