Folder: Streamlit_cement_impedance/data/20200619 (part 7)

File: Z_p31_3.txt
Index	Frequency (Hz)	Z' (Ω)	-Z'' (Ω)	Z (Ω)	-Phase (°)	Time (s)
1	1000000	3241.58	5915.36	6745.32	61.2775	788.29
2	794330	4563.67	6138.4	7648.99	53.3706	790.465
3	630960	5930.37	6694.81	8943.69	48.465	792.75
4	501190	7330.58	7189.05	10267.4	44.4415	795.135
5	398110	9113.16	8223.2	12274.8	42.0613	803.94
6	316230	10767.2	8625.25	13795.9	38.6971	806.005
7	251190	12143.8	8625.5	14895.4	35.3853	813.6
8	199530	13810.6	8803.76	16378	32.5161	815.761
9	158490	15426.4	8756.63	17738.5	29.5809	817.941
10	125890	17017.9	8592.18	19064	26.7887	820.066
11	100000	18506.2	8320.26	20290.5	24.2084	822.346
12	79433	19885.9	7899.94	21397.6	21.6661	824.576
13	63096	21200.7	7436.2	22467	19.3285	826.761
14	50119	22327.1	6887.15	23365.2	17.1432	829.021
15	39811	23362.8	6283.29	24192.9	15.0532	831.376
16	31623	24231.1	5713.94	24895.7	13.2685	833.411
17	25119	24923.8	5180.14	25456.4	11.7412	835.361
18	19953	25587.6	4693.62	26014.5	10.3944	837.481
19	15849	26166.7	4269.67	26512.8	9.26737	839.476
20	12589	26647	3872.58	26926.9	8.26884	841.436
21	10000	27096.1	3548.04	27327.4	7.46002	845.006
22	7943.3	27514.1	3282.53	27709.2	6.80343	847.006
23	6309.6	27883.5	3058.25	28050.7	6.25916	849.111
24	5011.9	28247.5	2876.83	28393.7	5.81516	851.181
25	3981.1	28578.2	2732.44	28708.5	5.46161	853.141
26	3162.3	28883	2616.44	29001.2	5.17616	855.101
27	2511.9	29203	2529.05	29312.3	4.94961	857.166
28	1995.3	29522	2479.02	29625.9	4.79998	859.126
29	1584.9	29812.3	2439.87	29911.9	4.67873	861.041
30	1258.9	30135.6	2424.47	30233	4.59966	863.136
31	1000	30476.3	2429.15	30573	4.55719	865.206
32	794.33	30783.8	2447.91	30881	4.54657	867.341
33	630.96	31123.7	2479.61	31222.3	4.5551	869.332
34	501.19	31463.6	2521.21	31564.5	4.58137	871.327
35	398.11	31800.9	2574.6	31904.9	4.62857	873.372
36	316.23	32153.2	2643.8	32261.7	4.70059	875.367
37	251.19	32541.9	2718.23	32655.2	4.77485	877.402
38	199.53	32909.5	2805.86	33028.9	4.87324	879.362
39	158.49	33303.4	2906.45	33430	4.98768	881.492
40	125.89	33712.8	3012.31	33847.1	5.10595	883.532
41	100	34125.4	3130.66	34268.7	5.24164	885.637
42	79.433	34567.1	3262.75	34720.7	5.3921	887.857
43	63.096	35004.5	3413.09	35170.5	5.56898	889.962
44	50.119	35488.9	3560.65	35667.1	5.72939	892.042
45	39.811	35987.5	3749.65	36182.3	5.94838	901.847
46	31.623	36493.9	3941.41	36706.1	6.16415	904.237
47	25.119	37041.5	4155.68	37273.9	6.40123	906.627
48	19.953	37602.6	4413.85	37860.8	6.69483	909.317
49	15.849	38200.2	4679.19	38485.7	6.98345	911.912
50	12.589	38838.7	4978.93	39156.5	7.3052	914.642
51	10	39483.4	5304.76	39838.1	7.65211	917.642
52	7.9433	40175.9	5673.98	40574.6	8.03863	920.622
53	6.3096	40938.9	6095.08	41390.1	8.46814	923.668
54	5.0119	41678.1	6573.18	42193.2	8.96247	926.683
55	3.9811	42492.5	7105.4	43082.5	9.4929	929.733
56	3.1623	43340.4	7722.84	44023.1	10.1035	932.903
57	2.5119	44258.9	8443.73	45057.1	10.8011	936.173
58	1.9953	45205.1	9300.53	46152	11.6258	939.443
59	1.5849	46272.7	10298.6	47404.9	12.5474	943.008
60	1.2589	47395.4	11465.1	48762.4	13.5988	946.478
61	1	48607.3	12808.7	50266.6	14.7627	952.913
62	0.79433	49970.1	14377	51997.2	16.0511	956.843
63	0.63096	51323.5	16228.8	53828.2	17.5473	961.148
64	0.50119	52971	18513.6	56113.1	19.2647	965.578
65	0.39811	54727.9	21140	58668.9	21.1203	970.513
66	0.31623	56729.9	24521.6	61802.8	23.3765	975.958
67	0.25119	59092.4	28138.3	65449.7	25.4626	982.064
68	0.19953	61361.8	32888.6	69619.9	28.1903	988.989
69	0.15849	64139.3	37930.8	74515.7	30.5993	996.944
70	0.12589	67504.1	44456.8	80828.3	33.3681	1006.13
71	0.1	72007	51970.1	88802.5	35.8194	1017.04

File: Z_p32_1.txt
Index	Frequency (Hz)	Z' (Ω)	-Z'' (Ω)	Z (Ω)	-Phase (°)	Time (s)
1	1000000	3179.87	6016.27	6804.93	62.1415	23.9312
2	794330	4563.06	6440.82	7893.39	54.6839	25.3762
3	630960	6021.18	7105.25	9313.38	49.7212	26.8513
4	501190	7446.18	7741.71	10741.5	46.1147	28.4363
5	398110	9307.93	8897.96	12876.8	43.71	33.8064
6	316230	10843.9	9437.67	14375.7	41.0336	35.3064
7	251190	12503.1	9489.37	15696.3	37.1972	40.7915
8	199530	14340.6	9784.75	17360.7	34.3062	42.4415
9	158490	16073.1	9866.23	18859.7	31.5431	44.0466
10	125890	17857.8	9896.28	20416.6	28.994	45.5666
11	100000	19570.9	9736.64	21859.1	26.4506	47.1966
12	79433	21214.6	9444.55	23222	23.9982	48.7567
13	63096	22781.5	9086.33	24526.7	21.7445	50.2267
14	50119	24233.1	8648.22	25730.1	19.6403	51.6417
15	39811	25613.1	8080.48	26857.5	17.5096	53.0867
16	31623	26852.1	7481.02	27874.8	15.5679	54.5818
17	25119	27918.3	6893.69	28756.8	13.8702	56.0368
18	19953	28862.4	6321.72	29546.6	12.3544	57.5568
19	15849	29713.2	5775.96	30269.4	11.0005	59.3119
20	12589	30421.2	5257.58	30872.2	9.80534	60.8519
21	10000	31079.6	4786.04	31445.9	8.75439	63.4819
22	7943.3	31647.6	4387.85	31950.3	7.89357	64.807
23	6309.6	32145.8	4042.79	32399	7.16813	66.177
24	5011.9	32631.4	3751.89	32846.4	6.55894	67.607
25	3981.1	33067.8	3509.66	33253.5	6.05843	69.077
26	3162.3	33488.1	3315.65	33651.8	5.65442	70.5921
27	2511.9	33875.8	3160.14	34022.9	5.32947	72.1521
28	1995.3	34255.7	3035.97	34390	5.0647	73.7071
29	1584.9	34612.6	2947.54	34737.8	4.86745	75.1472
30	1258.9	34984.5	2881.6	35103	4.7087	76.6022
31	1000	35345.8	2845.7	35460.2	4.60297	78.0322
32	794.33	35714.5	2829.99	35826.5	4.5306	79.4472
33	630.96	36092.2	2830.71	36203	4.48454	80.8223
34	501.19	36453.8	2850.96	36565.1	4.47186	82.3273
35	398.11	36841.4	2882.62	36954	4.47393	83.8923
36	316.23	37239	2931.84	37354.3	4.50163	85.3973
37	251.19	37640	2994.71	37759	4.54897	86.8824
38	199.53	38037.1	3069.92	38160.8	4.61425	88.2024
39	158.49	38488.3	3159.78	38617.8	4.69329	89.6374
40	125.89	38919.8	3259.66	39056	4.78753	91.1774
41	100	39379.7	3376.29	39524.2	4.90037	92.7225
42	79.433	39789.1	3503.09	39943	5.03143	94.3775
43	63.096	40284.4	3640.57	40448.5	5.16389	96.2025
44	50.119	40798.4	3807.62	40975.7	5.33184	97.9426
45	39.811	41306	4021.12	41501.2	5.5602	107.163
46	31.623	41830.4	4240.12	42044.7	5.788	108.913
47	25.119	42365.6	4485.45	42602.4	6.04367	110.668
48	19.953	42965.7	4794.26	43232.3	6.36692	112.773
49	15.849	43579.1	5127.03	43879.7	6.70993	115.243
50	12.589	44211.8	5510.2	44553.9	7.10425	117.328
51	10	44896	5955.96	45289.3	7.55681	119.858
52	7.9433	45623.2	6463.05	46078.7	8.06295	122.343
53	6.3096	46423.5	7054.15	46956.4	8.64012	124.898
54	5.0119	47242.8	7737.56	47872.3	9.30148	127.463
55	3.9811	48130.1	8535.14	48881.1	10.056	130.028
56	3.1623	49131.3	9452.79	50032.4	10.8905	132.713
57	2.5119	50193.5	10548.6	51290	11.8685	135.388
58	1.9953	51372.3	11785.8	52706.9	12.9211	138.123
59	1.5849	52715.8	13189.5	54340.8	14.0471	140.958
60	1.2589	54074.5	14862.6	56079.8	15.3685	143.993
61	1	55725.9	16778.7	58197.1	16.7567	149.284
62	0.79433	57545.5	18948.6	60585	18.2257	152.764
63	0.63096	59461.5	21563.9	63250.9	19.9334	156.399
64	0.50119	61627.4	24620.8	66363.6	21.7773	160.434
65	0.39811	64062.4	28004.5	69916	23.6122	164.934
66	0.31623	66723.8	32239.9	74104.5	25.7891	169.894
67	0.25119	70193	37474.9	79570.2	28.0971	175.544
68	0.19953	73401.4	43184.6	85162.6	30.4698	182.044
69	0.15849	77521.5	50073.7	92287.3	32.8598	189.554
70	0.12589	82749.6	57804.9	100940	34.9363	198.209
71	0.1	87203.7	66729.3	109806	37.4236	208.41

File: Z_p32_2.txt
Index	Frequency (Hz)	Z' (Ω)	-Z'' (Ω)	Z (Ω)	-Phase (°)	Time (s)
1	1000000	3212.07	6167.23	6953.57	62.4882	257.558
2	794330	4550.55	6469.82	7909.87	54.8794	259.158
3	630960	6010.38	7056.4	9269.16	49.5769	260.893
4	501190	7505.2	7721.56	10768	45.8141	262.638
5	398110	9350.16	8900.17	12908.9	43.5876	268.554
6	316230	10908.1	9405.2	14402.9	40.7687	270.099
7	251190	12523	9486.72	15710.6	37.1456	275.484
8	199530	14323.3	9773.19	17339.9	34.3069	277.039
9	158490	16087.5	9905.94	18892.7	31.6228	278.569
10	125890	17863.3	9905.84	20426	29.0099	280.069
11	100000	19575.6	9747.2	21868	26.4699	281.634
12	79433	21230.7	9481.05	23251.5	24.0642	283.099
13	63096	22793.6	9103.31	24544.3	21.7707	284.609
14	50119	24293.1	8628.85	25780	19.5549	286.044
15	39811	25628.1	8105.73	26879.4	17.5513	287.464
16	31623	26837.7	7492.38	27863.9	15.5984	288.909
17	25119	27907.2	6895.8	28746.6	13.8796	290.409
18	19953	28852.1	6337.7	29540	12.3889	291.904
19	15849	29679.4	5790.44	30239	11.0397	293.429
20	12589	30428.8	5234.03	30875.7	9.75987	295.124
21	10000	31090.3	4787.15	31456.7	8.75342	297.809
22	7943.3	31674.4	4392.67	31977.5	7.89554	299.169
23	6309.6	32169.9	4043.22	32423	7.16357	300.614
24	5011.9	32652.6	3754.23	32867.7	6.55879	302.104
25	3981.1	33088.8	3510.6	33274.5	6.05621	303.569
26	3162.3	33488.5	3313.17	33652	5.65015	304.999
27	2511.9	33869	3156.25	34015.8	5.32401	306.474
28	1995.3	34239.9	3034.25	34374	5.06418	308.004
29	1584.9	34620	2944.5	34745	4.86142	309.424
30	1258.9	34992.2	2886.03	35111	4.71488	310.974
31	1000	35358.8	2845.79	35473.2	4.60143	312.544
32	794.33	35734.7	2830.27	35846.6	4.52852	314.609
33	630.96	36104.6	2832.55	36215.5	4.4859	316.089
34	501.19	36474.4	2849.2	36585.5	4.46659	317.619
35	398.11	36862.9	2885.79	36975.7	4.47623	318.909
36	316.23	37252.1	2932.94	37367.4	4.50174	320.334
37	251.19	37673.8	2998.7	37792.9	4.55095	321.775
38	199.53	38093.8	3072.4	38217.5	4.61112	323.285
39	158.49	38512.2	3159.42	38641.6	4.68987	324.745
40	125.89	38931.9	3260.24	39068.1	4.7869	326.445
41	100	39371.4	3374.67	39515.8	4.89906	327.985
42	79.433	39859.4	3507.34	40013.4	5.02867	329.57
43	63.096	40300.1	3660.17	40465.9	5.18953	331.285
44	50.119	40816.9	3816.24	40994.9	5.34143	333.195
45	39.811	41320.1	4019.23	41515.1	5.55572	342.52
46	31.623	41851.6	4237.74	42065.6	5.78185	344.34
47	25.119	42396	4484.35	42632.5	6.0379	346.1
48	19.953	43008.8	4790.31	43274.7	6.3554	348.245
49	15.849	43616.3	5131.93	43917.1	6.71061	350.48
50	12.589	44251.7	5511.02	44593.6	7.09894	352.695
51	10	44936	5954.25	45328.8	7.54801	355.225
52	7.9433	45632.1	6458	46086.8	8.05519	357.765
53	6.3096	46405.5	7043.75	46937	8.63088	360.265
54	5.0119	47256.3	7734.73	47885.1	9.29553	362.88
55	3.9811	48162.2	8540.14	48913.5	10.0552	365.565
56	3.1623	49146	9465.24	50049.2	10.9014	368.18
57	2.5119	50211.1	10525.7	51302.5	11.8394	370.9
58	1.9953	51435.6	11781.2	52767.6	12.9009	373.71
59	1.5849	52733.3	13209.6	54362.6	14.0631	376.651
60	1.2589	54155.5	14810.9	56144.3	15.2957	379.686
61	1	55777.4	16780	58246.8	16.7433	384.961
62	0.79433	57619.3	19030	60680.5	18.2769	388.566
63	0.63096	59640.6	21513.4	63402.1	19.8352	392.231
64	0.50119	61789.7	24496.1	66468.2	21.6255	396.236
65	0.39811	64263.3	28230.3	70190.6	23.7155	400.566
66	0.31623	67112.9	32339.4	74498.2	25.7278	405.591
67	0.25119	69877.8	37091.3	79111.8	27.9595	411.196
68	0.19953	73756.8	42629	85189.8	30.0265	417.696
69	0.15849	77697.5	49232.3	91982.2	32.36	425.101
70	0.12589	82051.4	57713.5	100316	35.1219	433.772
71	0.1	88283.4	66853.8	110740	37.1353	444.157

File: Z_p32_3.txt
Index	Frequency (Hz)	Z' (Ω)	-Z'' (Ω)	Z (Ω)	-Phase (°)	Time (s)
1	1000000	3208.24	6136.11	6924.21	62.3974	475.344
2	794330	4579.47	6491.39	7944.16	54.7983	477.765
3	630960	5997.86	7119.63	9309.32	49.8879	480.236
4	501190	7443.33	7810.49	10789.2	46.3788	482.732
5	398110	9278.51	8842.24	12817	43.6208	492.127
6	316230	11003.8	9395.66	14469.4	40.4925	494.484
7	251190	12533.1	9497.38	15725.1	37.1542	504.494
8	199530	14295	9815.09	17340.2	34.4738	506.705
9	158490	16105.2	9968.52	18940.7	31.756	509.221
10	125890	17873.3	9919.62	20441.5	29.0301	511.507
11	100000	19600	9765.29	21898	26.4838	514.213
12	79433	21229	9494.23	23255.3	24.0956	516.644
13	63096	22829.2	9135.8	24589.3	21.8104	518.94
14	50119	24335.1	8644.4	25824.8	19.5563	521.351
15	39811	25637.8	8137.55	26898.2	17.6097	523.682
16	31623	26894.8	7496.79	27920.1	15.5755	525.888
17	25119	27943.8	6928.19	28789.9	13.9247	528.269
18	19953	28932.6	6373.76	29626.4	12.4236	530.705
19	15849	29787.9	5793.12	30346	11.0054	533.066
20	12589	30489.2	5289.3	30944.6	9.84177	535.422
21	10000	31142	4799.88	31509.7	8.76198	539.884
22	7943.3	31721.2	4402.55	32025.3	7.90153	542.28
23	6309.6	32245.8	4056.26	32499.9	7.16968	544.686
24	5011.9	32704.3	3759.55	32919.7	6.5577	547.023
25	3981.1	33140.7	3518.11	33327	6.05963	549.434
26	3162.3	33557	3321.24	33721	5.65233	551.81
27	2511.9	33936.9	3162.3	34083.9	5.32356	554.066
28	1995.3	34316.4	3039.58	34450.8	5.06177	556.427
29	1584.9	34690.4	2950.61	34815.6	4.86163	558.628
30	1258.9	35054.4	2893.7	35173.6	4.71901	560.864
31	1000	35430.9	2848.72	35545.2	4.59682	563.145
32	794.33	35793	2834.42	35905	4.52776	565.551
33	630.96	36172	2832.69	36282.8	4.47779	567.817
34	501.19	36557.7	2857.43	36669.2	4.46928	570.078
35	398.11	36937.4	2891.93	37050.4	4.47671	572.459
36	316.23	37334.8	2937.57	37450.2	4.49886	574.875
37	251.19	37749.1	3002.49	37868.3	4.54763	577.296
38	199.53	38162.2	3074.88	38285.9	4.60659	579.672
39	158.49	38573.9	3164.41	38703.5	4.68976	582.083
40	125.89	39017.9	3262.58	39154	4.77982	584.564
41	100	39435.1	3377.25	39579.4	4.89491	586.86
42	79.433	39895.7	3507.11	40049.6	5.02378	589.581
43	63.096	40407.9	3668.23	40574.1	5.18709	592.227
44	50.119	40892.9	3856.38	41074.3	5.38731	594.653
45	39.811	41420.5	4021.89	41615.3	5.54598	604.735
46	31.623	41955.5	4250.46	42170.3	5.78483	607.476
47	25.119	42521.9	4499.76	42759.3	6.04069	610.222
48	19.953	43091.3	4809.43	43358.9	6.36844	613.103
49	15.849	43709.7	5133.06	44010.1	6.69786	616.289
50	12.589	44342	5521.68	44684.5	7.0982	619.31
51	10	45013.2	5958.29	45405.9	7.54026	622.651
52	7.9433	45766.6	6484.73	46223.7	8.06464	626.107
53	6.3096	46550.4	7072.78	47084.7	8.63934	629.518
54	5.0119	47386.8	7764.67	48018.7	9.30564	632.999
55	3.9811	48288.7	8565.08	49042.4	10.0581	636.525
56	3.1623	49278.4	9517.21	50189	10.931	640.176
57	2.5119	50393.5	10560.2	51488.1	11.8354	643.977
58	1.9953	51544.9	11800.5	52878.4	12.8948	647.333
59	1.5849	52856.6	13245.4	54491	14.0681	650.879
60	1.2589	54294.4	14894.2	56300.3	15.3402	654.415
61	1	55896	16816.1	58370.8	16.7437	660.963
62	0.79433	57735.7	19030.7	60791.3	18.2431	664.799
63	0.63096	59757.2	21548.3	63523.7	19.8292	668.945
64	0.50119	61750.4	24601.9	66470.8	21.7228	673.411
65	0.39811	64253.6	28271.4	70198.3	23.7493	678.362
66	0.31623	66939.7	32344.6	74344.4	25.7894	683.778
67	0.25119	70050.1	37387.7	79403.2	28.0901	690.029
68	0.19953	74134.6	42902.4	85653.7	30.0584	697.08
69	0.15849	78331.5	49974.4	92915.4	32.5373	705.071
70	0.12589	83116.3	57588.2	101117	34.7166	714.253
71	0.1	87883.3	66429.9	110165	37.0852	725.164

File: Z_p33_1.txt
Index	Frequency (Hz)	Z' (Ω)	-Z'' (Ω)	Z (Ω)	-Phase (°)	Time (s)
1	1000000	3428.65	3004.37	4558.72	41.2266	160.243
2	794330	3918.99	2783.12	4806.69	35.381	161.938
3	630960	4504.12	2654.43	5228.11	30.5123	163.378
4	501190	5024.11	2531.75	5625.96	26.7445	164.968
5	398110	5619.6	2417.15	6117.39	23.2739	170.163
6	316230	6044.62	2240.07	6446.35	20.3341	171.573
7	251190	6333.21	1989.4	6638.32	17.4387	175.853
8	199530	6683.05	1824.58	6927.64	15.2705	177.298
9	158490	6965.64	1655.36	7159.64	13.3682	178.678
10	125890	7209.23	1482.42	7360.06	11.6197	180.113
11	100000	7408.28	1316.19	7524.29	10.0743	181.618
12	79433	7572.57	1170.84	7662.55	8.78921	182.958
13	63096	7704.45	1025.36	7772.38	7.58075	184.423
14	50119	7819.88	899.883	7871.48	6.56451	185.828
15	39811	7924.72	789.512	7963.95	5.6894	187.188
16	31623	7998.2	687.87	8027.72	4.91552	188.568
17	25119	8063.5	612.535	8086.73	4.34407	189.968
18	19953	8130.84	543.435	8148.98	3.82375	191.343
19	15849	8183.54	487.396	8198.04	3.4084	192.698
20	12589	8233.91	437.704	8245.54	3.04291	194.113
21	10000	8276.23	394.123	8285.6	2.72643	195.493
22	7943.3	8319.52	358.519	8327.24	2.46756	196.888
23	6309.6	8355.06	328.736	8361.53	2.25318	198.318
24	5011.9	8391.34	303.801	8396.84	2.07344	199.643
25	3981.1	8427.08	281.667	8431.79	1.91435	200.964
26	3162.3	8455.5	261.227	8459.54	1.76955	202.414
27	2511.9	8492.69	246.44	8496.27	1.66214	203.859
28	1995.3	8517.46	233.528	8520.67	1.57052	205.554
29	1584.9	8547.42	221.719	8550.29	1.48591	206.904
30	1258.9	8571.53	211.016	8574.13	1.41023	208.234
31	1000	8597.23	201.889	8599.6	1.34523	209.519
32	794.33	8625.68	195.005	8627.89	1.29509	210.804
33	630.96	8645.35	187.609	8647.38	1.24315	212.139
34	501.19	8680.11	183.722	8682.06	1.21254	213.594
35	398.11	8699.12	180.136	8700.99	1.18628	215.054
36	316.23	8723.26	177.038	8725.05	1.16265	216.589
37	251.19	8743.62	175.837	8745.39	1.15208	218.084
38	199.53	8771.6	175.585	8773.36	1.14676	219.609
39	158.49	8792.91	179.696	8794.75	1.17076	221.084
40	125.89	8815.93	182.695	8817.83	1.18719	222.639
41	100	8840.4	188.557	8842.41	1.22187	223.929
42	79.433	8862.51	196.179	8864.68	1.26808	225.339
43	63.096	8897.12	205.19	8899.48	1.32115	228.444
44	50.119	8931.47	199.232	8933.69	1.27787	246.649
45	39.811	8940.24	229.951	8943.2	1.47337	255.725
46	31.623	8967.36	247.475	8970.78	1.58081	257.395
47	25.119	8998.68	263.823	9002.54	1.67932	259.065
48	19.953	9027.24	288.932	9031.86	1.83322	261
49	15.849	9063.81	317.237	9069.36	2.00456	263.155
50	12.589	9096.79	349.458	9103.5	2.19997	265.13
51	10	9133.72	387.816	9141.95	2.43131	267.33
52	7.9433	9163.39	437.036	9173.81	2.73058	269.64
53	6.3096	9216.61	492.318	9229.75	3.05763	272.045
54	5.0119	9263.62	549.891	9279.93	3.39711	274.555
55	3.9811	9313.51	627.877	9334.65	3.8568	277.01
56	3.1623	9364.93	728.915	9393.26	4.45062	279.465
57	2.5119	9438.79	817.378	9474.12	4.94934	282.145
58	1.9953	9446.06	966.223	9495.34	5.84039	285.045
59	1.5849	9547.63	1097.79	9610.53	6.55907	287.92
60	1.2589	9698.38	1323.03	9788.21	7.76823	290.865
61	1	9767.06	1527.08	9885.72	8.88627	296.03
62	0.79433	9892.7	1804.8	10056	10.3392	299.255
63	0.63096	10018.1	2101.71	10236.2	11.8483	302.865
64	0.50119	10132.8	2503.9	10437.6	13.8802	306.79
65	0.39811	10306.6	2983.83	10729.8	16.146	311.126
66	0.31623	10469.6	3568.35	11061	18.8206	316.101
67	0.25119	10712	4349.6	11561.4	22.0995	321.546
68	0.19953	10935.3	5242.48	12127	25.6135	327.836
69	0.15849	11271.6	6298.19	12911.8	29.1951	335.096
70	0.12589	11617.9	7471.12	13812.8	32.7439	343.741
71	0.1	11837.1	9145.12	14958.3	37.6891	354.031

File: Z_p33_2.txt
Index	Frequency (Hz)	Z' (Ω)	-Z'' (Ω)	Z (Ω)	-Phase (°)	Time (s)
1	1000000	3408.82	3022.65	4555.92	41.5639	499.971
2	794330	3927.11	2781.31	4812.27	35.3074	501.396
3	630960	4500.52	2671.61	5233.76	30.6943	502.786
4	501190	5042.41	2564.47	5657.07	26.957	504.276
5	398110	5607.76	2425.09	6109.67	23.3862	509.611
6	316230	6078.78	2271.84	6489.44	20.4924	511.021
7	251190	6341.67	1988.88	6646.23	17.4126	515.316
8	199530	6682.43	1830.66	6928.65	15.3204	516.631
9	158490	6971.81	1657.95	7166.23	13.3769	518.026
10	125890	7215.75	1485.13	7367	11.6301	519.436
11	100000	7417.11	1319.91	7533.63	10.0904	520.956
12	79433	7580.49	1162.85	7669.17	8.72124	522.436
13	63096	7720.98	1026.65	7788.94	7.57415	523.891
14	50119	7835.13	902.068	7886.88	6.56762	525.501
15	39811	7936.94	791.323	7976.29	5.69364	526.986
16	31623	8010.29	691.76	8040.1	4.93575	528.386
17	25119	8076.25	613.253	8099.5	4.3423	529.781
18	19953	8140.28	547.883	8158.69	3.8505	531.156
19	15849	8193.15	488.314	8207.69	3.41081	532.531
20	12589	8243.82	438.347	8255.46	3.04371	534.011
21	10000	8283.84	394.346	8293.22	2.72546	535.572
22	7943.3	8326.57	359.266	8334.31	2.47061	537.062
23	6309.6	8369.57	327.753	8375.99	2.24256	538.447
24	5011.9	8405.6	302.357	8411.03	2.06009	539.852
25	3981.1	8437.72	281.814	8442.42	1.91293	541.217
26	3162.3	8468.51	262.583	8472.58	1.776	542.577
27	2511.9	8499.89	247.911	8503.5	1.67064	543.977
28	1995.3	8528.72	234.521	8531.94	1.57511	545.342
29	1584.9	8556.15	222.259	8559.03	1.48801	546.587
30	1258.9	8585.05	211.785	8587.66	1.41315	547.982
31	1000	8611.97	202.602	8614.35	1.34767	549.407
32	794.33	8637.67	193.963	8639.85	1.28639	550.902
33	630.96	8661.08	189.82	8663.16	1.25552	552.317
34	501.19	8690	184.394	8691.95	1.21558	553.707
35	398.11	8710.95	178.844	8712.79	1.17617	554.932
36	316.23	8737.58	177.974	8739.39	1.16688	556.197
37	251.19	8761.09	175.729	8762.86	1.14908	557.597
38	199.53	8784.13	176.841	8785.91	1.15332	559.027
39	158.49	8804.89	180.397	8806.74	1.17373	560.497
40	125.89	8827.13	183.044	8829.03	1.18794	562.152
41	100	8849.9	189.002	8851.92	1.22345	563.637
42	79.433	8877.13	196.882	8879.31	1.27053	565.247
43	63.096	8908.28	206.835	8910.68	1.33007	566.812
44	50.119	8930.62	188.91	8932.62	1.2118	593.583
45	39.811	8949.92	231.049	8952.9	1.47881	602.583
46	31.623	8981.89	244.886	8985.23	1.56175	604.238
47	25.119	9006.79	267.958	9010.78	1.70409	605.823
48	19.953	9041.55	289.501	9046.19	1.83392	607.768
49	15.849	9071.99	312.788	9077.38	1.97469	609.888
50	12.589	9110.92	353.481	9117.77	2.22182	611.888
51	10	9145.71	388.531	9153.96	2.4326	614.248
52	7.9433	9184.79	435.369	9195.11	2.71385	616.543
53	6.3096	9230.33	488.497	9243.25	3.02944	618.988
54	5.0119	9279.74	551.731	9296.13	3.40254	621.458
55	3.9811	9330.76	633.718	9352.25	3.8854	624.028
56	3.1623	9381.18	723.81	9409.06	4.41194	626.588
57	2.5119	9445.98	820.291	9481.53	4.96313	629.158
58	1.9953	9534.82	962.298	9583.25	5.76304	631.813
59	1.5849	9607.23	1133.3	9673.84	6.72771	634.768
60	1.2589	9706.83	1290.2	9792.2	7.5712	637.888
61	1	9782.2	1533.35	9901.65	8.90859	643.069
62	0.79433	9910.78	1809.33	10074.6	10.3461	646.279
63	0.63096	10030.7	2111.64	10250.6	11.8881	649.844
64	0.50119	10150.3	2527.51	10460.2	13.9828	653.694
65	0.39811	10290.3	3009.27	10721.3	16.3009	657.874
66	0.31623	10501.3	3644.54	11115.7	19.1397	662.614
67	0.25119	10697.6	4291.03	11526.2	21.8567	668.199
68	0.19953	11002.4	5160.37	12152.5	25.1276	674.609
69	0.15849	11270.2	6193.61	12859.9	28.7913	681.989
70	0.12589	11499.7	7554.31	13759	33.3014	690.539
71	0.1	12077.5	9179.22	15169.9	37.2358	700.74

File: Z_p33_3.txt
Index	Frequency (Hz)	Z' (Ω)	-Z'' (Ω)	Z (Ω)	-Phase (°)	Time (s)
1	1000000	3421.34	3029.46	4569.82	41.5236	805.497
2	794330	3949.09	2788.96	4834.62	35.2308	807.613
3	630960	4502.95	2662.81	5231.36	30.5979	809.869
4	501190	5069.27	2558.6	5678.37	26.7814	812
5	398110	5640	2420.57	6137.48	23.228	819.025
6	316230	6083.57	2249.45	6486.13	20.2923	820.991
7	251190	6347.88	1995.71	6654.2	17.4527	827.99
8	199530	6692.73	1837.88	6940.49	15.3554	830.001
9	158490	6985.63	1660.85	7180.35	13.3739	832.027
10	125890	7225.72	1487.95	7377.33	11.6359	834.233
11	100000	7426.7	1322.82	7543.59	10.0994	836.319
12	79433	7591.31	1169.57	7680.87	8.75849	838.395
13	63096	7727.09	1030.15	7795.45	7.59369	840.451
14	50119	7842.56	903.851	7894.48	6.5743	842.502
15	39811	7939.78	791.157	7979.1	5.69043	844.568
16	31623	8017.36	689.695	8046.97	4.91678	846.504
17	25119	8086.55	613.724	8109.81	4.34011	848.46
18	19953	8147.96	546.455	8166.27	3.83688	850.391
19	15849	8201.51	487.368	8215.98	3.40076	852.327
20	12589	8254.39	437.171	8265.96	3.03168	854.253
21	10000	8296.91	396.686	8306.39	2.7373	856.209
22	7943.3	8343.38	358.416	8351.07	2.45981	858.165
23	6309.6	8378.98	329.962	8385.48	2.25513	860.186
24	5011.9	8415.32	303.262	8420.78	2.06387	862.107
25	3981.1	8448.14	282.351	8452.85	1.91421	864.173
26	3162.3	8477.91	263.836	8482.02	1.7825	866.204
27	2511.9	8509.11	247.808	8512.71	1.66813	868.135
28	1995.3	8537.39	235.073	8540.63	1.57722	870.282
29	1584.9	8572.4	222.121	8575.28	1.48427	872.258
30	1258.9	8596.3	212.04	8598.91	1.413	874.179
31	1000	8624	202.428	8626.37	1.34463	876.26
32	794.33	8652.74	194.634	8654.93	1.28859	878.331
33	630.96	8674.56	189.292	8676.63	1.25008	880.292
34	501.19	8699.91	183.103	8701.83	1.2057	882.428
35	398.11	8725.92	179.164	8727.76	1.17626	884.294
36	316.23	8746.51	177.672	8748.32	1.16372	886.275
37	251.19	8769	175.753	8770.77	1.1482	888.361
38	199.53	8795.66	177.165	8797.45	1.15391	890.397
39	158.49	8813.94	180.015	8815.78	1.17004	892.408
40	125.89	8836.64	184.648	8838.57	1.19706	894.614
41	100	8863	188.84	8865.01	1.22059	896.62
42	79.433	8886.36	197.698	8888.56	1.27447	898.701
43	63.096	8919.17	205.369	8921.54	1.31904	900.872
44	50.119	8891.59	210.357	8894.08	1.35525	930.292
45	39.811	8964.07	233.171	8967.1	1.49002	940.013
46	31.623	8990.74	245.36	8994.09	1.56323	942.439
47	25.119	9024.16	264.353	9028.03	1.67794	944.735
48	19.953	9057.62	291.621	9062.32	1.84407	947.421
49	15.849	9084.16	316.98	9089.69	1.99845	950.097
50	12.589	9122.65	346.891	9129.25	2.17764	952.688
51	10	9161.77	391.919	9170.15	2.44948	955.619
52	7.9433	9201.64	437.197	9212.02	2.72024	958.625
53	6.3096	9242.76	492.147	9255.85	3.04794	961.656
54	5.0119	9292.76	552.761	9309.19	3.40411	964.682
55	3.9811	9349.23	627.013	9370.23	3.83684	967.768
56	3.1623	9394.37	725.113	9422.31	4.41368	970.914
57	2.5119	9461.43	826.341	9497.45	4.99142	974.15
58	1.9953	9538.83	975.424	9588.57	5.83867	977.462
59	1.5849	9609.2	1134.26	9675.91	6.73196	981.028
60	1.2589	9693.38	1290.44	9778.9	7.58296	984.634
61	1	9795.5	1527.03	9913.81	8.86056	991.181
62	0.79433	9926.09	1791.73	10086.5	10.2321	995.067
63	0.63096	10032	2121.74	10253.9	11.942	999.278
64	0.50119	10183.6	2510.23	10488.4	13.8472	1003.75
65	0.39811	10319.3	2989.33	10743.6	16.1554	1008.64
66	0.31623	10537.2	3601.53	11135.7	18.8701	1014.06
67	0.25119	10721.6	4286.81	11546.8	21.793	1020.12
68	0.19953	10974.7	5257.42	12169	25.5967	1027.07
69	0.15849	11194	6284.78	12837.6	29.3117	1035.2
70	0.12589	11519.9	7611.78	13807.5	33.4548	1044.52
71	0.1	12041	9222.26	15166.9	37.4487	1055.42