Folder: Streamlit_cement_impedance/data/20200619 (part 9)

File: Z_p36_2.txt
Index	Frequency (Hz)	Z' (Ω)	-Z'' (Ω)	Z (Ω)	-Phase (°)	Time (s)
1	1000000	3399.3	2769.25	4384.52	39.1681	392.25
2	794330	3881.44	2535.54	4636.22	33.1545	393.585
3	630960	4384.1	2405.23	5000.55	28.7503	395.035
4	501190	4854.37	2277.38	5362.03	25.1331	396.61
5	398110	5366.01	2111.27	5766.41	21.4773	402.28
6	316230	5750.82	1933.3	6067.09	18.5815	403.63
7	251190	5958.68	1693.13	6194.56	15.8623	410.695
8	199530	6242.66	1537.79	6429.28	13.8385	412.82
9	158490	6484.32	1381.68	6629.89	12.0287	415.21
10	125890	6680.48	1226.04	6792.06	10.3996	417.715
11	100000	6838.56	1080.34	6923.36	8.97724	420.56
12	79433	6969.29	945.716	7033.16	7.7277	422.94
13	63096	7073.71	826.373	7121.82	6.66327	426
14	50119	7163.34	721.159	7199.55	5.7488	427.411
15	39811	7238.71	626.328	7265.76	4.94519	428.851
16	31623	7299.96	543.714	7320.18	4.25963	430.306
17	25119	7350.43	481.395	7366.18	3.74707	431.771
18	19953	7394.14	424.991	7406.34	3.28956	433.201
19	15849	7435.45	378.883	7445.1	2.91705	434.996
20	12589	7473.62	338.134	7481.27	2.59051	436.626
21	10000	7505.45	305.145	7511.65	2.32816	438.176
22	7943.3	7536.88	277.665	7541.99	2.10987	439.611
23	6309.6	7564.87	253.485	7569.11	1.91916	440.986
24	5011.9	7594.62	233.527	7598.21	1.76123	442.421
25	3981.1	7617.4	217.662	7620.51	1.63674	443.761
26	3162.3	7641.84	203.317	7644.54	1.52404	445.211
27	2511.9	7663.69	192.053	7666.1	1.43554	446.806
28	1995.3	7684.4	180.425	7686.52	1.34502	448.346
29	1584.9	7708.5	172.208	7710.43	1.27977	450.591
30	1258.9	7732.12	164.552	7733.87	1.21917	452.131
31	1000	7752.71	157.57	7754.32	1.16435	453.606
32	794.33	7773.49	151.705	7774.97	1.11803	455.111
33	630.96	7790.66	145.706	7792.02	1.07146	456.496
34	501.19	7808	140.876	7809.27	1.03364	458.021
35	398.11	7829.35	138.514	7830.58	1.01355	459.961
36	316.23	7852.93	135.77	7854.11	0.990492	461.431
37	251.19	7865.49	133.535	7866.63	0.972637	463.056
38	199.53	7884.98	135.264	7886.14	0.982791	464.551
39	158.49	7901.78	136.634	7902.97	0.990633	466.116
40	125.89	7919.68	138.468	7920.89	1.00166	467.731
41	100	7938.21	144.496	7939.53	1.04281	469.441
42	79.433	7955.91	148.863	7957.3	1.07193	470.886
43	63.096	7973.76	155.396	7975.27	1.11646	472.521
44	50.119	7971.21	178.184	7973.2	1.28055	474.026
45	39.811	8012.14	176.262	8014.08	1.26027	483.527
46	31.623	8036.38	186.385	8038.54	1.3286	485.197
47	25.119	8052.75	205.764	8055.38	1.4637	487.072
48	19.953	8077.15	226.81	8080.33	1.60847	489.942
49	15.849	8106.32	249.679	8110.17	1.76418	492.512
50	12.589	8136.5	280.11	8141.32	1.97171	494.627
51	10	8162.3	311.433	8168.24	2.18507	496.942
52	7.9433	8187.53	352.805	8195.12	2.46738	499.427
53	6.3096	8232.76	394.475	8242.21	2.74324	502.092
54	5.0119	8259.12	455.201	8271.66	3.15466	504.567
55	3.9811	8296.67	516.731	8312.75	3.56387	507.137
56	3.1623	8338.09	604.206	8359.95	4.1446	509.682
57	2.5119	8390.7	696.992	8419.6	4.7485	512.697
58	1.9953	8436.02	803.057	8474.16	5.43781	515.617
59	1.5849	8493.94	928.324	8544.51	6.23724	518.512
60	1.2589	8560.15	1161.21	8638.55	7.72516	521.382
61	1	8635.86	1344.55	8739.91	8.84955	526.687
62	0.79433	8728.9	1593.8	8873.22	10.3476	530.227
63	0.63096	8815.25	1883	9014.12	12.0576	534.012
64	0.50119	8933.49	2270.61	9217.54	14.2608	538.393
65	0.39811	9000.6	2736.01	9407.27	16.9083	543.013
66	0.31623	9133.45	3298.8	9710.92	19.8586	548.208
67	0.25119	9328.29	4076.65	10180.2	23.6063	553.908
68	0.19953	9450.83	4923.77	10656.5	27.519	560.443
69	0.15849	9687.87	5915.12	11350.9	31.407	569.103
70	0.12589	9996.01	7214.03	12327.3	35.8176	578.668
71	0.1	10170.6	8899.29	13514.4	41.186	589.074

File: Z_p36_3.txt
Index	Frequency (Hz)	Z' (Ω)	-Z'' (Ω)	Z (Ω)	-Phase (°)	Time (s)
1	1000000	3422.99	2797.15	4420.51	39.2545	737.55
2	794330	3869.57	2536.09	4626.59	33.2405	739.946
3	630960	4381.11	2398.37	4994.63	28.6978	742.432
4	501190	4865.28	2272.76	5369.95	25.039	744.788
5	398110	5376.69	2114.17	5777.41	21.4653	755.263
6	316230	5761.14	1943.23	6080.04	18.6393	757.514
7	251190	5972.52	1696.76	6208.87	15.8596	766.229
8	199530	6260.04	1548.5	6448.72	13.8939	769.615
9	158490	6497.66	1383.94	6643.41	12.0238	774.841
10	125890	6693.37	1230.55	6805.54	10.4173	777.047
11	100000	6851.32	1082.94	6936.38	8.98202	779.283
12	79433	6985.12	951.263	7049.6	7.75507	781.439
13	63096	7090.11	831.079	7138.66	6.68551	783.565
14	50119	7179.77	724.144	7216.2	5.75931	785.766
15	39811	7255.22	630.173	7282.54	4.96413	788.017
16	31623	7312.44	547.228	7332.89	4.27976	790.143
17	25119	7367.04	482.186	7382.81	3.74477	792.269
18	19953	7409.21	426.046	7421.45	3.29101	794.455
19	15849	7453.19	377.326	7462.74	2.89819	796.641
20	12589	7489.39	341.139	7497.16	2.608	798.867
21	10000	7522.16	307.477	7528.45	2.34072	801.233
22	7943.3	7553.24	278.798	7558.39	2.11388	803.464
23	6309.6	7585.48	255.253	7589.77	1.92729	805.76
24	5011.9	7615.06	235.358	7618.7	1.77027	807.941
25	3981.1	7633.56	218.361	7636.69	1.63852	810.122
26	3162.3	7660.47	203.823	7663.18	1.52411	812.353
27	2511.9	7687.64	192.719	7690.05	1.43603	814.479
28	1995.3	7708.26	181.714	7710.41	1.35044	816.711
29	1584.9	7729.59	171.525	7731.49	1.27122	818.742
30	1258.9	7747.21	165.704	7748.98	1.22531	820.948
31	1000	7770.73	158.05	7772.34	1.16519	823.199
32	794.33	7788.97	151.987	7790.45	1.11788	825.345
33	630.96	7808.7	146.543	7810.08	1.07512	827.501
34	501.19	7831.38	142.863	7832.69	1.0451	829.682
35	398.11	7849.05	138.736	7850.27	1.01262	831.758
36	316.23	7868.45	137.14	7869.65	0.998515	833.779
37	251.19	7887.82	134.568	7888.97	0.977387	836.265
38	199.53	7905.79	135.599	7906.95	0.982635	838.426
39	158.49	7919.63	137.922	7920.83	0.997715	840.717
40	125.89	7939.73	142.976	7941.02	1.03165	843.043
41	100	7956.97	144.429	7958.28	1.03988	845.304
42	79.433	7973.33	149.094	7974.72	1.07125	847.62
43	63.096	7992.95	158.172	7994.52	1.13367	849.951
44	50.119	8008.5	184.217	8010.62	1.31772	852.312
45	39.811	8028.57	179.565	8030.58	1.28125	863.223
46	31.623	8056.17	191.322	8058.44	1.36043	866.549
47	25.119	8074.99	203.849	8077.56	1.44609	869.946
48	19.953	8100.73	230.625	8104.01	1.63075	874.117
49	15.849	8132.55	249.53	8136.38	1.75745	878.128
50	12.589	8149.9	279.956	8154.7	1.96739	881.054
51	10	8178.78	314.849	8184.84	2.20456	884.42
52	7.9433	8207.54	352.394	8215.1	2.45851	888.011
53	6.3096	8241.84	402.572	8251.67	2.79638	891.237
54	5.0119	8278.36	457.286	8290.98	3.16173	894.408
55	3.9811	8326.76	523.456	8343.2	3.59713	897.654
56	3.1623	8367.76	596.977	8389.03	4.08071	900.92
57	2.5119	8411.8	719.037	8442.48	4.88574	904.456
58	1.9953	8466.46	805.312	8504.68	5.43351	908.002
59	1.5849	8482.95	975.858	8538.89	6.56232	911.848
60	1.2589	8555.27	1128.44	8629.37	7.51395	915.519
61	1	8662.77	1347.57	8766.96	8.84197	922.207
62	0.79433	8763.93	1610.12	8910.61	10.4104	926.198
63	0.63096	8855.84	1901.65	9057.72	12.1193	930.619
64	0.50119	8942.32	2264.47	9224.58	14.2103	935.345
65	0.39811	9055.87	2736.35	9460.26	16.8129	940.426
66	0.31623	9194.4	3367.91	9791.83	20.1178	946.017
67	0.25119	9379.06	4076.27	10226.6	23.4904	952.293
68	0.19953	9504.3	4875.84	10682	27.1585	959.364
69	0.15849	9795.78	5924.79	11448.2	31.1669	967.465
70	0.12589	10037.1	7214.06	12360.7	35.7062	976.851
71	0.1	10240.3	8827.66	13520	40.763	987.923

File: Z_p37_1.txt
Index	Frequency (Hz)	Z' (Ω)	-Z'' (Ω)	Z (Ω)	-Phase (°)	Time (s)
1	1000000	3682.95	3290.11	4938.51	41.7756	140.644
2	794330	4276.37	3052.27	5253.92	35.5174	142.034
3	630960	4917.41	2938.17	5728.33	30.8585	143.404
4	501190	5535.19	2796.15	6201.35	26.8011	144.894
5	398110	6191.26	2664.01	6740.08	23.2815	149.875
6	316230	6668.71	2501.71	7122.52	20.5632	151.155
7	251190	6976.65	2189.03	7312.01	17.42	155.2
8	199530	7348.98	2011.82	7619.37	15.3099	156.565
9	158490	7664.39	1818.13	7877.09	13.3449	158.01
10	125890	7932.03	1636.3	8099.05	11.6561	159.24
11	100000	8152.71	1457.78	8282.01	10.1379	160.635
12	79433	8335.1	1290.15	8434.36	8.79872	161.92
13	63096	8488.89	1136.94	8564.69	7.6284	163.385
14	50119	8614.23	997.921	8671.84	6.60801	164.8
15	39811	8729.84	877.019	8773.78	5.73681	166.28
16	31623	8811.94	773.552	8845.83	5.01682	167.595
17	25119	8890.93	681.137	8916.98	4.38089	168.895
18	19953	8951.45	606.797	8971.99	3.87801	170.185
19	15849	9021.95	541.422	9038.18	3.43429	171.51
20	12589	9076.22	487.824	9089.32	3.07654	172.795
21	10000	9129.38	441.07	9140.03	2.76599	174.055
22	7943.3	9169.46	401.377	9178.24	2.50642	175.3
23	6309.6	9213.9	368.886	9221.28	2.29266	176.63
24	5011.9	9254.62	340.758	9260.9	2.10869	177.975
25	3981.1	9289.89	316.821	9295.29	1.95325	179.27
26	3162.3	9328.4	299.017	9333.19	1.83596	180.535
27	2511.9	9365.33	281.434	9369.56	1.72126	181.83
28	1995.3	9410.05	268.793	9413.89	1.63618	183.975
29	1584.9	9431.96	257.684	9435.48	1.56495	186.675
30	1258.9	9455.46	247.856	9458.7	1.50155	187.865
31	1000	9489.56	242.166	9492.65	1.46182	189.12
32	794.33	9519.71	235.557	9522.63	1.41744	190.515
33	630.96	9550.93	231.022	9553.72	1.38563	191.8
34	501.19	9580.24	229.294	9582.99	1.37106	193.135
35	398.11	9614.3	226.627	9616.98	1.35032	194.385
36	316.23	9635.08	229.49	9637.81	1.36442	195.66
37	251.19	9666.92	235.182	9669.78	1.39364	197.02
38	199.53	9697.19	238.822	9700.13	1.4108	198.35
39	158.49	9728.39	246.739	9731.52	1.45287	199.68
40	125.89	9762.76	258.15	9766.17	1.51468	201
41	100	9791.74	272.292	9795.53	1.59289	202.491
42	79.433	9826.94	294.231	9831.34	1.71499	203.941
43	63.096	9862.29	319.869	9867.48	1.85765	205.396
44	50.119	9921.16	330.843	9926.67	1.90995	206.911
45	39.811	9941.85	369.653	9948.72	2.12936	216.031
46	31.623	9982.69	404.159	9990.87	2.31841	217.676
47	25.119	10038.3	444.632	10048.2	2.53617	219.316
48	19.953	10091.3	489.197	10103.1	2.77537	221.241
49	15.849	10151.1	539.169	10165.4	3.04036	223.211
50	12.589	10215.3	604.17	10233.2	3.38473	225.271
51	10	10285.3	660.327	10306.5	3.67341	227.541
52	7.9433	10360.2	739.869	10386.6	4.08482	229.796
53	6.3096	10438.9	816.119	10470.8	4.47032	232.266
54	5.0119	10533	923.892	10573.4	5.01282	234.646
55	3.9811	10614.7	1031.71	10664.8	5.55149	237.051
56	3.1623	10724.1	1179.09	10788.7	6.27433	239.511
57	2.5119	10782.4	1323.84	10863.4	6.99959	242.211
58	1.9953	11012.8	1528.95	11118.4	7.90411	244.836
59	1.5849	11126.6	1802.76	11271.7	9.20323	247.576
60	1.2589	11151.5	2065.08	11341.1	10.4914	250.501
61	1	11372.4	2392.96	11621.4	11.8827	255.547
62	0.79433	11597.2	2806.9	11932	13.6058	258.692
63	0.63096	11768.7	3307.18	12224.5	15.6962	262.202
64	0.50119	12017.1	3912.77	12638	18.0353	266.017
65	0.39811	12265.9	4671.82	13125.5	20.8508	270.272
66	0.31623	12614.7	5531.67	13774.2	23.678	275.002
67	0.25119	12924.5	6649.18	14534.6	27.2242	280.497
68	0.19953	13341	7920.98	15515.3	30.6989	286.757
69	0.15849	13890.5	9533.99	16847.6	34.4645	293.922
70	0.12589	14643.4	11345.8	18524.5	37.7689	302.532
71	0.1	15133.6	13523.8	20295.8	41.7849	312.708

File: Z_p37_2.txt
Index	Frequency (Hz)	Z' (Ω)	-Z'' (Ω)	Z (Ω)	-Phase (°)	Time (s)
1	1000000	3691.45	3355.65	4988.7	42.2719	417.261
2	794330	4274.19	3067.54	5261.04	35.6665	418.796
3	630960	4898.75	2930.68	5708.47	30.8899	420.226
4	501190	5522.9	2816.83	6199.76	27.0229	421.686
5	398110	6194.44	2663.38	6742.75	23.2659	426.812
6	316230	6663.59	2463.78	7104.48	20.2913	428.297
7	251190	6980.46	2188.95	7315.62	17.4105	432.837
8	199530	7351.82	2013.72	7622.62	15.3181	434.242
9	158490	7672.16	1825.61	7886.37	13.3848	435.617
10	125890	7933.46	1635.64	8100.31	11.6495	436.982
11	100000	8147.85	1454.82	8276.71	10.1236	438.407
12	79433	8339.8	1289.02	8438.83	8.78624	439.747
13	63096	8489.68	1133.8	8565.06	7.60689	441.117
14	50119	8617.27	1000.15	8675.12	6.6203	442.547
15	39811	8731.01	877.582	8775	5.73971	443.932
16	31623	8811.09	770.842	8844.74	4.99982	445.302
17	25119	8886.97	681.098	8913.03	4.38258	446.712
18	19953	8955.46	605.532	8975.91	3.86822	448.002
19	15849	9020.31	541.947	9036.58	3.43824	449.367
20	12589	9077.05	487.627	9090.14	3.07502	450.762
21	10000	9124.25	439.658	9134.84	2.7587	452.242
22	7943.3	9174.06	404.377	9182.96	2.52387	453.682
23	6309.6	9213.54	368.63	9220.91	2.29116	455.067
24	5011.9	9252.48	340.524	9258.75	2.10774	456.432
25	3981.1	9290.45	319.519	9295.94	1.96975	457.832
26	3162.3	9325.58	297.739	9330.34	1.82867	459.842
27	2511.9	9360.04	283.383	9364.33	1.73415	461.537
28	1995.3	9410.53	269.141	9414.38	1.63822	464.032
29	1584.9	9422.87	259.015	9426.43	1.57454	467.492
30	1258.9	9462.67	248.247	9465.93	1.50277	468.787
31	1000	9490.24	241.708	9493.32	1.45896	470.157
32	794.33	9520.95	235.54	9523.86	1.41716	471.737
33	630.96	9548.38	231.702	9551.19	1.39007	473.242
34	501.19	9580.99	229.343	9583.74	1.37124	474.727
35	398.11	9610.42	227.962	9613.13	1.35881	475.967
36	316.23	9639.05	231.23	9641.82	1.3742	477.442
37	251.19	9676.92	236.351	9679.81	1.39913	478.957
38	199.53	9698.84	239.814	9701.81	1.41641	480.337
39	158.49	9728.68	248.297	9731.85	1.462	481.598
40	125.89	9765.05	262.398	9768.58	1.53923	483.088
41	100	9795.1	278.281	9799.05	1.62735	484.698
42	79.433	9830.69	299.546	9835.25	1.74529	486.333
43	63.096	9865.32	319.341	9870.48	1.85402	487.933
44	50.119	9968.03	367.837	9974.81	2.11335	489.448
45	39.811	9951.03	375.274	9958.1	2.15972	498.698
46	31.623	9994.5	409.292	10002.9	2.34505	500.503
47	25.119	10042.8	443.449	10052.6	2.5283	502.623
48	19.953	10098.2	495.925	10110.4	2.81155	504.643
49	15.849	10158.2	547.147	10172.9	3.08312	506.713
50	12.589	10229.2	611.634	10247.5	3.42181	508.908
51	10	10298.2	665.721	10319.7	3.69869	511.298
52	7.9433	10374.1	740.768	10400.5	4.08429	513.648
53	6.3096	10457.8	831.622	10490.8	4.54668	516.328
54	5.0119	10539.4	929.895	10580.3	5.04218	518.828
55	3.9811	10643.4	1045.78	10694.6	5.61169	521.313
56	3.1623	10757	1173.93	10820.9	6.22814	523.818
57	2.5119	10877.1	1343.51	10959.7	7.04137	526.433
58	1.9953	10931.4	1512.05	11035.5	7.87527	529.148
59	1.5849	11166.7	1783.17	11308.2	9.07277	531.838
60	1.2589	11253.1	2061.79	11440.4	10.3825	534.683
61	1	11404.6	2417.68	11658	11.9691	539.834
62	0.79433	11604.7	2834.09	11945.7	13.7241	542.979
63	0.63096	11822.6	3328.55	12282.2	15.7241	548.124
64	0.50119	12037.8	3902.37	12654.5	17.9615	554.259
65	0.39811	12281.9	4668.32	13139.2	20.8116	560.024
66	0.31623	12642.8	5546.29	13805.9	23.6866	565.724
67	0.25119	12980.6	6696.3	14606.1	27.2878	572.849
68	0.19953	13391.6	7956.96	15577.1	30.7178	579.199
69	0.15849	13903.9	9562.65	16874.9	34.5189	586.524
70	0.12589	14616.6	11478.3	18584.8	38.1421	595.4
71	0.1	15363.4	13760.3	20624.7	41.8494	607.26

File: Z_p37_3.txt
Index	Frequency (Hz)	Z' (Ω)	-Z'' (Ω)	Z (Ω)	-Phase (°)	Time (s)
1	1000000	3717.36	3346.4	5001.71	41.9938	671.637
2	794330	4290.65	3047.14	5262.58	35.3817	674.162
3	630960	4907.58	2929.23	5715.31	30.832	676.717
4	501190	5536.42	2794.51	6201.71	26.7823	678.977
5	398110	6197.77	2664.86	6746.4	23.2663	688.022
6	316230	6689.41	2495.74	7139.81	20.46	690.177
7	251190	6977.7	2193.17	7314.25	17.4485	697.552
8	199530	7356.1	2011.07	7626.05	15.2903	700.277
9	158490	7642.99	1812.2	7854.9	13.3389	702.442
10	125890	7947.13	1640.75	8114.74	11.6653	705.767
11	100000	8155.87	1457.35	8285.05	10.1311	707.868
12	79433	8352	1293.6	8451.58	8.80433	710.003
13	63096	8498.98	1137.54	8574.77	7.62342	712.113
14	50119	8628.94	1001.8	8686.9	6.62224	714.413
15	39811	8732.3	873.732	8775.9	5.71386	716.568
16	31623	8826	769.316	8859.46	4.98159	718.853
17	25119	8894.81	681.07	8920.85	4.37856	720.803
18	19953	8970.46	609.704	8991.15	3.8883	722.913
19	15849	9026.75	543.143	9043.07	3.44336	725.048
20	12589	9083.46	486.467	9096.47	3.06556	727.503
21	10000	9134.63	444.303	9145.43	2.78464	734.308
22	7943.3	9181.98	402.187	9190.78	2.50805	736.903
23	6309.6	9228.75	371.617	9236.23	2.3059	739.568
24	5011.9	9264.06	339.717	9270.29	2.10012	747.963
25	3981.1	9301.58	317.845	9307.01	1.9571	752.153
26	3162.3	9336.45	299.065	9341.24	1.83467	754.308
27	2511.9	9372.02	283.984	9376.32	1.7356	756.273
28	1995.3	9412.7	269.391	9416.56	1.63935	758.308
29	1584.9	9440.97	257.918	9444.49	1.56487	763.429
30	1258.9	9469.37	250.854	9472.69	1.51747	765.419
31	1000	9502.79	243.239	9505.91	1.46625	767.449
32	794.33	9529.5	235.06	9532.4	1.413	769.819
33	630.96	9561.84	232.487	9564.67	1.39282	772.154
34	501.19	9590.2	229.54	9592.95	1.3711	774.294
35	398.11	9622.27	230.38	9625.03	1.37154	776.619
36	316.23	9650.11	231.228	9652.88	1.37261	778.749
37	251.19	9681.39	235.704	9684.26	1.39465	780.894
38	199.53	9709.76	242.703	9712.8	1.43185	783.629
39	158.49	9741.68	251.103	9744.91	1.47654	785.934
40	125.89	9769.3	262.844	9772.83	1.54118	788.129
41	100	9802.76	278.038	9806.7	1.62466	790.924
42	79.433	9838.03	300.17	9842.61	1.74762	793.349
43	63.096	9879.64	317.209	9884.73	1.83898	795.759
44	50.119	9956	348.522	9962.1	2.00489	803.999
45	39.811	9957.98	380.028	9965.22	2.18553	818.14
46	31.623	10002.4	412.867	10010.9	2.36364	820.675
47	25.119	10056	449.666	10066	2.56035	823.355
48	19.953	10111.3	502.345	10123.8	2.8442	826.495
49	15.849	10169.6	547.83	10184.3	3.08351	829.275
50	12.589	10237.5	615.102	10256	3.43838	832.26
51	10	10309.6	676.704	10331.8	3.75539	835.365
52	7.9433	10378.8	738.248	10405	4.06864	847.74
53	6.3096	10469.6	834.037	10502.8	4.55472	851.265
54	5.0119	10554.6	938.918	10596.3	5.08355	854.84
55	3.9811	10647.7	1051.22	10699.5	5.6384	857.99
56	3.1623	10739.8	1188.92	10805.5	6.31702	861.365
57	2.5119	10887.3	1338.26	10969.2	7.00761	864.94
58	1.9953	11023.6	1547.14	11131.6	7.98918	875.241
59	1.5849	11144.9	1778.49	11286	9.06673	882.631
60	1.2589	11273.2	2014.1	11451.8	10.1297	886.561
61	1	11414.5	2417.9	11667.7	11.96	893.396
62	0.79433	11620.9	2836.72	11962.1	13.7179	897.561
63	0.63096	11822	3322.46	12280	15.6975	910.066
64	0.50119	12070.4	3925.68	12692.7	18.0162	915.051
65	0.39811	12309.4	4650.09	13158.4	20.695	920.876
66	0.31623	12667.1	5585.53	13843.9	23.795	927.617
67	0.25119	12995.9	6703.79	14623.1	27.2864	934.532
68	0.19953	13531.1	7984.61	15711.3	30.5446	942.052
69	0.15849	13904.7	9526.07	16854.9	34.415	950.867
70	0.12589	14621.1	11290.6	18473	37.6756	961.052
71	0.1	15212.5	13588.5	20397.7	41.7726	972.377

File: Z_p38_1.txt
Index	Frequency (Hz)	Z' (Ω)	-Z'' (Ω)	Z (Ω)	-Phase (°)	Time (s)
1	1000000	3408.59	2896.17	4472.84	40.3535	95.3265
2	794330	3912.19	2656.21	4728.71	34.1748	97.2666
3	630960	4435.23	2536.65	5109.39	29.7666	98.7516
4	501190	4944.84	2424.04	5507.03	26.1148	100.432
5	398110	5494.05	2276.87	5947.16	22.5103	106.507
6	316230	5879.68	2114.62	6248.38	19.781	107.977
7	251190	6154.04	1856.01	6427.83	16.7829	116.837
8	199530	6470.42	1706.24	6691.61	14.7725	118.517
9	158490	6734.05	1534.17	6906.6	12.8342	120.642
10	125890	6957.16	1373.94	7091.53	11.1714	122.332
11	100000	7139.94	1220.61	7243.52	9.70122	124.122
12	79433	7290.13	1078.86	7369.53	8.41808	126.187
13	63096	7419.28	949.355	7479.77	7.29182	127.852
14	50119	7523.35	832.449	7569.26	6.31402	129.482
15	39811	7615.91	731.718	7650.98	5.488	131.042
16	31623	7685.7	639.858	7712.29	4.75907	132.672
17	25119	7743.84	568.298	7764.66	4.19725	134.502
18	19953	7807.22	507.406	7823.7	3.71853	136.717
19	15849	7857.36	451.533	7870.32	3.28896	138.777
20	12589	7900.76	406.932	7911.23	2.94844	140.837
21	10000	7945.84	367.569	7954.34	2.64857	142.482
22	7943.3	7988.72	334.189	7995.7	2.39544	144.797
23	6309.6	8021.02	305.033	8026.82	2.17786	146.867
24	5011.9	8056.57	281.624	8061.5	2.002	149.058
25	3981.1	8086	260.046	8090.18	1.842	151.278
26	3162.3	8116.25	242.094	8119.86	1.70853	153.883
27	2511.9	8145.29	227.148	8148.45	1.5974	155.633
28	1995.3	8166.82	213.775	8169.62	1.49943	157.198
29	1584.9	8197.79	203.081	8200.31	1.41908	158.933
30	1258.9	8220.88	191.318	8223.11	1.33316	160.578
31	1000	8245.14	182.944	8247.17	1.27108	162.433
32	794.33	8267.01	174.122	8268.85	1.2066	164.383
33	630.96	8292.09	165.928	8293.75	1.14636	166.128
34	501.19	8307.71	158.535	8309.22	1.09324	167.783
35	398.11	8337.36	152.546	8338.75	1.0482	169.598
36	316.23	8356.82	149.069	8358.15	1.02193	171.218
37	251.19	8376.81	146.221	8378.09	1.00002	172.828
38	199.53	8396.94	145.169	8398.19	0.990451	174.523
39	158.49	8411.22	140.591	8412.39	0.957594	176.288
40	125.89	8431.89	141.429	8433.07	0.960942	177.913
41	100	8451.16	142.998	8452.37	0.969379	180.098
42	79.433	8467.45	145.6	8468.7	0.985116	182.263
43	63.096	8494.78	145.766	8496.03	0.98307	184.423
44	50.119	8507.75	164.251	8509.34	1.10602	186.513
45	39.811	8525	159.903	8526.5	1.07457	197.658
46	31.623	8546.26	167.821	8547.91	1.12496	199.583
47	25.119	8568.32	179.423	8570.2	1.19961	201.498
48	19.953	8587.15	195.891	8589.39	1.30681	203.684
49	15.849	8602.78	211.272	8605.37	1.40682	205.744
50	12.589	8628.64	230.968	8631.73	1.53331	208.014
51	10	8651.37	257.426	8655.2	1.70436	211.189
52	7.9433	8679.95	289.329	8684.77	1.90913	214.864
53	6.3096	8700.46	324.525	8706.51	2.13613	217.684
54	5.0119	8718.89	372.445	8726.84	2.44602	220.799
55	3.9811	8746.87	422.889	8757.09	2.76795	223.549
56	3.1623	8787.95	492.553	8801.74	3.208	226.554
57	2.5119	8813.44	576.845	8832.3	3.74471	229.389
58	1.9953	8892.23	691.309	8919.07	4.4454	232.444
59	1.5849	8913.79	789.194	8948.65	5.05956	236.504
60	1.2589	8935.82	942.312	8985.36	6.01979	240.454
61	1	8999.51	1171.96	9075.5	7.41955	246.984
62	0.79433	9069.24	1417.8	9179.39	8.88514	250.789
63	0.63096	9160.9	1696.21	9316.61	10.49	256.14
64	0.50119	9235.59	2052.77	9460.97	12.5313	260.78
65	0.39811	9332	2465.59	9652.22	14.7998	265.18
66	0.31623	9466.02	2972.41	9921.73	17.4327	270.56
67	0.25119	9638.3	3687.43	10319.6	20.9359	276.29
68	0.19953	9819.88	4425.96	10771.2	24.2617	282.61
69	0.15849	10073.4	5395.15	11427.2	28.1727	289.93
70	0.12589	10433.1	6561.73	12325	32.1672	298.885
71	0.1	10673.4	7840.03	13243.4	36.2987	312.216

File: Z_p38_2.txt
Index	Frequency (Hz)	Z' (Ω)	-Z'' (Ω)	Z (Ω)	-Phase (°)	Time (s)
1	1000000	3417.88	2907.33	4487.14	40.3853	417.989
2	794330	3913.57	2669.27	4737.2	34.2961	419.744
3	630960	4445.32	2547.86	5123.72	29.8194	421.714
4	501190	4960.39	2424.16	5521.05	26.0449	423.484
5	398110	5510.08	2283.78	5964.61	22.5127	429.04
6	316230	5909.33	2131.17	6281.89	19.8316	430.45
7	251190	6166.2	1861.63	6441.09	16.7995	434.88
8	199530	6482.43	1705.69	6703.08	14.7418	436.48
9	158490	6750.83	1541.37	6924.56	12.8615	437.975
10	125890	6975.13	1379.58	7110.26	11.1879	439.455
11	100000	7154.6	1225.98	7258.88	9.72349	441.025
12	79433	7308.74	1080.38	7388.16	8.40856	442.485
13	63096	7437.21	950.516	7497.7	7.28323	444.105
14	50119	7540.87	837.469	7587.24	6.33714	445.69
15	39811	7630.23	732.018	7665.27	5.47999	447.23
16	31623	7705.59	645.89	7732.61	4.79139	448.755
17	25119	7767.02	573.176	7788.14	4.22055	450.21
18	19953	7825.99	510.005	7842.59	3.72859	451.82
19	15849	7878.7	454.909	7891.82	3.30454	453.345
20	12589	7926.05	407.167	7936.5	2.94074	454.9
21	10000	7964.63	369.467	7973.2	2.65596	456.485
22	7943.3	8008.92	336.17	8015.97	2.40355	458.015
23	6309.6	8044.31	305.616	8050.12	2.17571	459.535
24	5011.9	8076.63	283.209	8081.59	2.00827	461.005
25	3981.1	8109.03	261.061	8113.23	1.84394	462.56
26	3162.3	8138.46	243.489	8142.1	1.71368	464.225
27	2511.9	8167.37	228.309	8170.56	1.60122	465.88
28	1995.3	8191.88	214.481	8194.68	1.49978	467.215
29	1584.9	8221.05	204.016	8223.58	1.42158	468.615
30	1258.9	8242.5	192.005	8244.74	1.33444	470.075
31	1000	8266.94	183.02	8268.96	1.26825	471.665
32	794.33	8290.62	173.245	8292.43	1.19711	473.335
33	630.96	8309.32	165.553	8310.97	1.1414	474.895
34	501.19	8331.48	159.274	8333	1.0952	476.555
35	398.11	8358.81	153.846	8360.22	1.05442	478.04
36	316.23	8380	148.904	8381.32	1.01798	479.46
37	251.19	8400.77	146.671	8402.05	1.00024	480.935
38	199.53	8419.39	142.172	8420.59	0.967417	482.426
39	158.49	8435.94	143.008	8437.15	0.9712	484.111
40	125.89	8457.21	143.566	8458.43	0.972532	485.876
41	100	8477.78	141.864	8478.96	0.958677	487.596
42	79.433	8494.08	147.962	8495.37	0.99796	489.206
43	63.096	8508.6	150.706	8509.93	1.01473	490.891
44	50.119	8472.38	196.605	8474.66	1.32933	492.491
45	39.811	8547.21	160.867	8548.73	1.07824	501.826
46	31.623	8567.09	173.18	8568.84	1.15805	503.786
47	25.119	8587.54	184.454	8589.52	1.23048	505.696
48	19.953	8609.03	193.188	8611.2	1.28551	507.671
49	15.849	8627.07	213.444	8629.71	1.41727	509.831
50	12.589	8658.19	226.258	8661.14	1.49693	511.931
51	10	8669.52	254.832	8673.26	1.68367	514.291
52	7.9433	8703.49	288.214	8708.26	1.89664	516.676
53	6.3096	8723.43	321.726	8729.36	2.11215	519.121
54	5.0119	8751.44	365.922	8759.09	2.3943	521.691
55	3.9811	8778.1	425.597	8788.41	2.77575	525.421
56	3.1623	8813.59	501.982	8827.87	3.25978	528.146
57	2.5119	8830.81	578.772	8849.76	3.74981	530.941
58	1.9953	8892.86	679.038	8918.75	4.3665	533.491
59	1.5849	8933.16	806.829	8969.52	5.16086	536.272
60	1.2589	8927.74	965.113	8979.76	6.16987	539.292
61	1	9025.52	1175.1	9101.7	7.41803	544.307
62	0.79433	9099.73	1409.27	9208.21	8.80342	547.552
63	0.63096	9190.24	1680.14	9342.56	10.3603	551.047
64	0.50119	9250.64	2040.04	9472.92	12.4363	554.862
65	0.39811	9358.69	2468.15	9678.68	14.7741	559.032
66	0.31623	9498.3	3044.3	9974.24	17.7712	563.797
67	0.25119	9685.59	3619.16	10339.7	20.4889	569.242
68	0.19953	9919.5	4384.58	10845.3	23.8462	575.492
69	0.15849	10184.1	5314.51	11487.4	27.5576	583.167
70	0.12589	10370.1	6456.38	12215.7	31.9063	591.733
71	0.1	10839.8	7936.78	13434.8	36.2111	601.938