Folder: Streamlit_cement_impedance/data/20200826 (part 5)

File: Z_p54_1.txt
Index	Frequency (Hz)	Z' (Ω)	-Z'' (Ω)	Z (Ω)	-Phase (°)	Time (s)
1	1000000	2642.39	2114.21	3384.1	38.6637	15.2001
2	794330	2992.57	1992.22	3595.05	33.6525	17.1901
3	630960	3377.33	1933.47	3891.62	29.7904	18.9501
4	501190	3766.48	1842.73	4193.09	26.07	20.8152
5	398110	4150.24	1722.56	4493.52	22.541	26.0653
6	316230	4461.75	1598.56	4739.47	19.7117	27.6703
7	251190	4646.09	1424.38	4859.52	17.0442	32.6804
8	199530	4893.15	1307.88	5064.92	14.9647	34.4954
9	158490	5096.56	1182.7	5231.99	13.0647	36.2355
10	125890	5269.06	1058.51	5374.33	11.359	38.1205
11	100000	5408.63	940.119	5489.73	9.86053	39.9155
12	79433	5527.53	829.704	5589.46	8.53659	41.7706
13	63096	5622.01	728.84	5669.06	7.38665	43.3956
14	50119	5702.83	642.111	5738.87	6.42417	45.0556
15	39811	5774.77	561.08	5801.96	5.54947	46.7507
16	31623	5828.96	492.598	5849.73	4.83052	48.8457
17	25119	5877.07	436.661	5893.27	4.24922	50.6757
18	19953	5922.69	388.933	5935.45	3.75712	52.5008
19	15849	5958.76	348.193	5968.92	3.34421	54.2308
20	12589	5995.76	314.134	6003.98	2.99914	55.8908
21	10000	6023.57	285.296	6030.32	2.71169	57.7459
22	7943.3	6055.3	261.183	6060.93	2.46981	59.3809
23	6309.6	6081.99	242.606	6086.83	2.28427	61.0459
24	5011.9	6110.19	226.545	6114.39	2.12335	62.711
25	3981.1	6133.4	213.316	6137.11	1.99191	64.431
26	3162.3	6156.72	202.772	6160.06	1.88636	66.081
27	2511.9	6181.91	195.469	6185	1.81106	67.8611
28	1995.3	6207.13	189.856	6210.03	1.75194	69.6561
29	1584.9	6232.39	185.657	6235.15	1.70629	71.4711
30	1258.9	6253.39	182.356	6256.05	1.67034	73.1361
31	1000	6275.29	179.935	6277.87	1.64243	74.8512
32	794.33	6294.41	179.37	6296.96	1.6323	76.7812
33	630.96	6316.58	179.651	6319.14	1.62912	78.4912
34	501.19	6342.37	181.237	6344.96	1.63681	80.2113
35	398.11	6367.46	183.763	6370.11	1.65308	81.8813
36	316.23	6390.24	189.011	6393.03	1.69421	83.7363
37	251.19	6412	193.486	6414.91	1.72841	85.4564
38	199.53	6441.73	202.465	6444.91	1.80023	86.9964
39	158.49	6464.87	212.177	6468.35	1.87977	88.8264
40	125.89	6490.74	224.875	6494.63	1.98425	90.6115
41	100	6524.06	239.187	6528.44	2.09966	92.1615
42	79.433	6553.49	254.672	6558.44	2.22542	94.0565
43	63.096	6587.07	272.878	6592.72	2.37219	96.1266
44	50.119	6635.05	295.247	6641.61	2.54788	97.9116
45	39.811	6653.59	320.142	6661.29	2.7547	107.512
46	31.623	6691.27	350.072	6700.42	2.99486	109.452
47	25.119	6740.04	378.302	6750.65	3.2125	111.352
48	19.953	6781.81	416.066	6794.56	3.51072	113.532
49	15.849	6825.77	460.223	6841.27	3.85729	115.777
50	12.589	6877.8	509.143	6896.62	4.23371	118.127
51	10	6935.35	566.336	6958.43	4.66837	120.772
52	7.9433	6994.02	635.458	7022.82	5.19149	123.672
53	6.3096	7056.66	714.62	7092.76	5.78256	126.367
54	5.0119	7129.47	812.477	7175.61	6.5014	129.157
55	3.9811	7209.67	926.086	7268.91	7.31959	131.982
56	3.1623	7296.08	1054.28	7371.86	8.22226	134.987
57	2.5119	7381.99	1227.06	7483.28	9.43761	137.877
58	1.9953	7493.71	1389.28	7621.41	10.503	141.027
59	1.5849	7661.68	1651.41	7837.63	12.1635	144.262
60	1.2589	7736.48	1914.08	7969.74	13.8964	147.648
61	1	7895.14	2230.69	8204.22	15.7771	153.353
62	0.79433	8077.55	2627.79	8494.24	18.0207	156.983
63	0.63096	8260.98	3076.3	8815.18	20.4248	161.033
64	0.50119	8490.46	3650.74	9242.07	23.2668	165.448
65	0.39811	8714.47	4321.73	9727.25	26.378	170.183
66	0.31623	9006.24	5141.17	10370.3	29.7197	175.388
67	0.25119	9306.63	6180.63	11172	33.5885	181.268
68	0.19953	9719.85	7290.16	12150	36.8709	188.008
69	0.15849	10183.8	8742.1	13421.4	40.644	195.823
70	0.12589	10646.1	10480.2	14939	44.5499	204.824
71	0.1	11161.2	12718.4	16921.3	48.731	215.639

File: Z_p55_1.txt
Index	Frequency (Hz)	Z' (Ω)	-Z'' (Ω)	Z (Ω)	-Phase (°)	Time (s)
1	1000000	2700.03	2107.47	3425.14	37.9733	18.1191
2	794330	3036.49	1977.46	3623.62	33.0735	19.6642
3	630960	3418.45	1919.54	3920.51	29.3152	21.6442
4	501190	3805.33	1832.43	4223.54	25.7129	23.7692
5	398110	4189.67	1713.58	4526.55	22.2446	29.0093
6	316230	4490.19	1599.67	4766.63	19.6088	30.6144
7	251190	4676.8	1423.85	4888.75	16.9329	35.5945
8	199530	4923.9	1311.43	5095.55	14.914	37.1845
9	158490	5130.97	1190.64	5267.3	13.0642	38.8045
10	125890	5306.15	1068.07	5412.58	11.3809	40.4145
11	100000	5447.94	950.362	5530.21	9.89536	42.1446
12	79433	5570.76	841.658	5633.98	8.59155	43.8346
13	63096	5669.55	741.47	5717.83	7.45092	45.6396
14	50119	5754.3	649.198	5790.8	6.43687	47.3097
15	39811	5824.53	571.264	5852.47	5.6016	49.0697
16	31623	5883.15	501.578	5904.5	4.87307	50.8297
17	25119	5927.24	445.405	5943.95	4.29744	52.7048
18	19953	5975.54	395.862	5988.64	3.79014	54.3598
19	15849	6016.89	354.265	6027.31	3.36959	55.9998
20	12589	6050.77	319.481	6059.2	3.02241	57.6499
21	10000	6084.37	289.649	6091.26	2.72553	59.4699
22	7943.3	6111.65	266.688	6117.46	2.49858	61.2099
23	6309.6	6139.45	246.662	6144.41	2.30071	62.79
24	5011.9	6166.98	230.953	6171.3	2.14472	64.32
25	3981.1	6189.74	218.021	6193.58	2.01729	65.775
26	3162.3	6216.16	209.642	6219.7	1.93159	67.435
27	2511.9	6238.65	201.844	6241.92	1.85309	69.0001
28	1995.3	6260.48	196.503	6263.56	1.7978	70.5701
29	1584.9	6286.91	193.3	6289.88	1.76109	72.1001
30	1258.9	6307.98	192.114	6310.9	1.74444	73.5852
31	1000	6334.03	192.52	6336.95	1.74094	75.0702
32	794.33	6353.95	193.587	6356.9	1.7451	76.6952
33	630.96	6378.93	196.773	6381.97	1.76686	78.2752
34	501.19	6406.08	201.593	6409.25	1.80244	79.8603
35	398.11	6429.48	208.569	6432.86	1.858	81.3253
36	316.23	6456.2	217.475	6459.86	1.92926	82.8703
37	251.19	6483.24	230.075	6487.32	2.03244	84.4354
38	199.53	6512.22	244.253	6516.8	2.14798	85.9304
39	158.49	6543.71	262.556	6548.97	2.29767	87.5054
40	125.89	6577.4	283.397	6583.51	2.46715	89.1954
41	100	6612.37	309.82	6619.62	2.68261	90.6855
42	79.433	6647.16	337.74	6655.73	2.90868	92.4555
43	63.096	6687.56	370.922	6697.84	3.17463	94.1805
44	50.119	6736.03	416.76	6748.91	3.54039	95.9506
45	39.811	6781.43	449.21	6796.29	3.7898	105.501
46	31.623	6836.32	498.334	6854.46	4.16921	107.431
47	25.119	6895.96	553.386	6918.13	4.58803	109.326
48	19.953	6962.63	613.755	6989.63	5.03759	111.516
49	15.849	7033.47	681.191	7066.38	5.53184	113.811
50	12.589	7112.59	763.425	7153.45	6.12635	116.106
51	10	7197.4	854.663	7247.97	6.77194	118.811
52	7.9433	7290.29	956.589	7352.78	7.47531	121.636
53	6.3096	7396.83	1084.18	7475.87	8.33866	124.381
54	5.0119	7505.8	1220.34	7604.36	9.23469	127.081
55	3.9811	7635.78	1387.04	7760.73	10.2955	130.076
56	3.1623	7773.84	1584.14	7933.6	11.5179	132.946
57	2.5119	7944.78	1775.07	8140.67	12.5945	135.826
58	1.9953	8046.87	2034.43	8300.06	14.1883	138.801
59	1.5849	8369.25	2401.7	8707.04	16.0117	141.891
60	1.2589	8497.25	2717.62	8921.25	17.7355	145.011
61	1	8736.09	3193.45	9301.47	20.0797	150.762
62	0.79433	9007.39	3719.51	9745.14	22.4377	154.332
63	0.63096	9301.44	4337.36	10263	25.0001	158.182
64	0.50119	9624.75	5083.01	10884.5	27.8394	162.352
65	0.39811	10017.5	6017.22	11685.8	30.992	167.052
66	0.31623	10460.1	7117.74	12652.1	34.2338	172.162
67	0.25119	10960	8383.06	13798.5	37.4115	178.037
68	0.19953	11551.4	10041.1	15305.5	40.999	184.727
69	0.15849	12204.1	11963.4	17089.9	44.4295	192.422
70	0.12589	13032.4	14214.6	19284.6	47.4844	201.288
71	0.1	13743.2	16914.3	21793.8	50.9054	211.953