Folder: Streamlit_cement_impedance/data/20200314 (part 2)

File: Z_p26_1.txt
Index	Frequency (Hz)	Z' (Ω)	-Z'' (Ω)	Z (Ω)	-Phase (°)	Time (s)
1	1000000	1660.28	7440.77	7623.75	77.4215	130.988
2	794330	3098.12	9118.27	9630.22	71.2337	132.498
3	630960	4967.94	11347	12386.9	66.3553	133.943
4	501190	7467.57	13727.9	15627.5	61.4551	135.553
5	398110	11186.5	16870.1	20242	56.4519	141.403
6	316230	14406.9	18579.4	23510.7	52.2092	142.698
7	251190	18576.2	18581.7	26274.6	45.0084	147.744
8	199530	22107.5	18654.8	28926.5	40.1583	149.129
9	158490	25553.3	18503.4	31549.2	35.9087	150.614
10	125890	28724	18034.8	33916.4	32.1233	151.949
11	100000	31769.1	17383	36213.8	28.686	153.389
12	79433	34507.9	16720.7	38345.5	25.8524	154.724
13	63096	37291.6	16220.3	40666.5	23.5071	156.154
14	50119	39918.8	15070.7	42668.9	20.6832	157.584
15	39811	42179.7	13914.5	44415.5	18.257	158.929
16	31623	44357.1	12675.8	46132.7	15.9482	160.274
17	25119	46184.6	11542.3	47605	14.0317	161.674
18	19953	47584.1	10260.5	48677.7	12.1683	163.039
19	15849	49350.2	9469.78	50250.5	10.8624	164.409
20	12589	50295	8312.21	50977.3	9.38439	165.749
21	10000	51116.1	7489.4	51661.9	8.33552	167.129
22	7943.3	51976.4	6636.34	52398.4	7.27614	168.469
23	6309.6	52706.6	5841.37	53029.3	6.32417	169.859
24	5011.9	53296.6	5184.21	53548.1	5.55574	171.254
25	3981.1	53906.7	4581.7	54101.1	4.85807	172.754
26	3162.3	54344.2	4071.39	54496.5	4.28452	174.149
27	2511.9	54753.1	3638.57	54873.9	3.80195	175.534
28	1995.3	55101.8	3255.3	55197.9	3.38098	176.869
29	1584.9	55424.2	2939.62	55502.1	3.03604	178.214
30	1258.9	55771.6	2652.04	55834.6	2.72247	179.569
31	1000	56054.9	2430.77	56107.6	2.48302	180.934
32	794.33	56274.5	2248.1	56319.3	2.28769	182.449
33	630.96	56531.7	2082.59	56570	2.10979	183.799
34	501.19	56782.3	1953.52	56815.9	1.97041	185.234
35	398.11	57016.5	1839.51	57046.2	1.84788	186.579
36	316.23	57211	1741.86	57237.5	1.7439	187.959
37	251.19	57429.8	1676.27	57454.3	1.67188	189.399
38	199.53	57599.1	1628.01	57622.1	1.619	190.659
39	158.49	57813.9	1573.79	57835.3	1.5593	192.059
40	125.89	58002.2	1569.95	58023.4	1.55045	193.524
41	100	58188.1	1546.2	58208.7	1.52213	194.919
42	79.433	58377.5	1554.72	58398.2	1.52555	196.399
43	63.096	58424.5	1660.88	58448.1	1.62835	197.919
44	50.119	58893.4	1819.93	58921.5	1.76999	199.379
45	39.811	58941.4	1693.41	58965.7	1.64568	208.65
46	31.623	59158.5	1785.74	59185.5	1.72899	210.325
47	25.119	59371.6	1898.85	59402	1.83183	212.6
48	19.953	59600.5	2047.7	59635.7	1.96774	214.555
49	15.849	59824.4	2256.39	59866.9	2.15999	216.545
50	12.589	60078.5	2438.38	60128	2.32416	218.595
51	10	60341.1	2690.41	60401	2.55294	220.95
52	7.9433	60647.8	2993.79	60721.7	2.82603	223.305
53	6.3096	60967.8	3334.28	61058.9	3.13034	225.71
54	5.0119	61317.5	3725.96	61430.5	3.4773	228.195
55	3.9811	61725.8	4184.47	61867.5	3.87822	230.71
56	3.1623	62162.1	4745.75	62343	4.36577	233.235
57	2.5119	62552.6	5394.4	62784.8	4.92887	235.805
58	1.9953	63262.3	6051.38	63551.1	5.46402	238.48
59	1.5849	63785.6	6977.38	64166.1	6.24265	241.25
60	1.2589	64347.8	8083.5	64853.5	7.1601	244.13
61	1	65053	9219.32	65703	8.06624	249.225
62	0.79433	65860.7	10603.6	66708.9	9.14618	252.435
63	0.63096	66787.6	12367.6	67923.1	10.4911	255.961
64	0.50119	67653.7	14398.9	69169	12.0151	259.816
65	0.39811	68798.6	17041.3	70877.8	13.912	264.091
66	0.31623	69923.5	20067.8	72746.2	16.0133	268.916
67	0.25119	71644.3	24186.7	75616.8	18.6544	274.396
68	0.19953	73275.1	28788	78727.3	21.4486	280.726
69	0.15849	75520.3	34219	82911.2	24.3757	288.116
70	0.12589	78247.1	40019.7	87887.3	27.0876	296.681
71	0.1	80197.9	48303.2	93621	31.0605	306.866

File: Z_p27_1.txt
Index	Frequency (Hz)	Z' (Ω)	-Z'' (Ω)	Z (Ω)	-Phase (°)	Time (s)
1	1000000	2312.94	4274.49	4860.13	61.5821	131.973
2	794330	3146.67	4745.56	5694.02	56.4525	133.483
3	630960	4305.52	5194.26	6746.69	50.3446	134.958
4	501190	5556.37	5733.66	7984.24	45.8997	136.568
5	398110	6876.58	6034.69	9149.04	41.2692	142.608
6	316230	8184.47	6011.5	10155	36.2973	143.868
7	251190	9136.37	5767.95	10804.7	32.2649	149.049
8	199530	10201.9	5592.3	11634.1	28.7299	150.464
9	158490	11167.7	5345.76	12381.2	25.5796	151.959
10	125890	12047.5	5045.31	13061.3	22.7232	153.419
11	100000	12838.9	4713.94	13676.9	20.1613	154.854
12	79433	13556.6	4362.96	14241.4	17.8399	156.164
13	63096	14149.6	4011.78	14707.3	15.8294	157.659
14	50119	14748.9	3659.97	15196.3	13.9365	159.154
15	39811	15243.8	3329.56	15603.2	12.3211	160.554
16	31623	15631	2989.82	15914.4	10.8285	161.919
17	25119	15998	2684.68	16221.7	9.52623	163.304
18	19953	16320.6	2465.77	16505.8	8.59145	164.699
19	15849	16604	2247.54	16755.4	7.70879	166.159
20	12589	16856.6	2059.14	16981.9	6.96456	167.594
21	10000	17056.2	1929.86	17165	6.45541	168.969
22	7943.3	17280.5	1793.28	17373.3	5.92465	170.384
23	6309.6	17496.6	1681.53	17577.2	5.48961	171.789
24	5011.9	17694.3	1594.04	17765.9	5.14776	173.169
25	3981.1	17874.3	1525.41	17939.3	4.87785	174.554
26	3162.3	18052.7	1467.43	18112.3	4.64713	175.909
27	2511.9	18245.5	1429.02	18301.4	4.47836	177.364
28	1995.3	18416.4	1401.11	18469.6	4.35066	178.669
29	1584.9	18604.7	1381.12	18655.9	4.24557	180.004
30	1258.9	18789.9	1373.37	18840.1	4.18036	181.414
31	1000	18982	1367.73	19031.2	4.12127	182.854
32	794.33	19169.4	1368.09	19218.1	4.0822	184.214
33	630.96	19357	1374.25	19405.7	4.06088	185.594
34	501.19	19547.8	1382.39	19596.6	4.04513	186.974
35	398.11	19758.5	1394.8	19807.7	4.03794	188.329
36	316.23	19961.3	1409.65	20011	4.03948	189.719
37	251.19	20159.9	1423.8	20210.2	4.03982	191.149
38	199.53	20367.3	1441.59	20418.3	4.04862	192.604
39	158.49	20578.2	1459.53	20629.9	4.05697	194.134
40	125.89	20798.5	1481.19	20851.2	4.07351	195.719
41	100	21013.6	1499.75	21067.1	4.08231	197.069
42	79.433	21235.4	1518.57	21289.7	4.09031	198.594
43	63.096	21464	1558.19	21520.4	4.15215	200.184
44	50.119	21633.5	1667.43	21697.7	4.40743	218.54
45	39.811	21929.4	1587.72	21986.8	4.14107	227.655
46	31.623	22152.3	1641.15	22213	4.23699	229.445
47	25.119	22399.5	1625.16	22458.4	4.14972	231.13
48	19.953	22640	1679.61	22702.3	4.24285	233.14
49	15.849	22892.6	1717.86	22956.9	4.29144	235.215
50	12.589	23142	1728.61	23206.4	4.27182	237.265
51	10	23370.7	1741.85	23435.5	4.26246	239.585
52	7.9433	23580.4	1775.51	23647.1	4.30602	242.035
53	6.3096	23845.5	1792.97	23912.8	4.30005	244.4
54	5.0119	24123.9	1885.25	24197.4	4.46851	246.955
55	3.9811	24350.6	1917.12	24425.9	4.5016	249.495
56	3.1623	24632.2	1953.59	24709.5	4.53466	252.01
57	2.5119	24819.1	1941.96	24894.9	4.47399	254.665
58	1.9953	24952.7	3281.34	25167.6	7.49153	257.476
59	1.5849	25031.9	2098.43	25119.7	4.7919	260.286
60	1.2589	25310.8	2586.89	25442.6	5.83566	263.301
61	1	25745.4	2755.81	25892.4	6.10974	270.176
62	0.79433	25987	3060.33	26166.6	6.71645	273.411
63	0.63096	26248.5	3421.24	26470.5	7.42611	277.041
64	0.50119	26457.9	3900.15	26743.8	8.38556	280.956
65	0.39811	26746.1	4546.54	27129.8	9.64743	285.376
66	0.31623	27028.2	5288.57	27540.8	11.0711	290.236
67	0.25119	27317.7	6377.49	28052.2	13.1407	295.811
68	0.19953	27643.6	7529.76	28650.7	15.237	302.116
69	0.15849	28114.8	9070.75	29541.9	17.8814	309.477
70	0.12589	28781	10760.5	30726.8	20.4994	318.047
71	0.1	29043.6	12859.6	31763.2	23.8823	328.347

File: Z_p28_1.txt
Index	Frequency (Hz)	Z' (Ω)	-Z'' (Ω)	Z (Ω)	-Phase (°)	Time (s)
1	1000000	2396.55	4564.51	5155.41	62.2988	131.749
2	794330	3279.66	5030.19	6004.91	56.8958	133.214
3	630960	4565.78	5493.57	7143.22	50.2696	134.689
4	501190	5862.68	5899.19	8316.94	45.1779	136.264
5	398110	7254.65	6459.02	9713.33	41.6796	145.549
6	316230	8648.62	6214.35	10649.7	35.6986	146.949
7	251190	9694.55	5992.63	11397.2	31.7221	151.34
8	199530	10770.6	5781.2	12224.1	28.225	152.645
9	158490	11760.8	5524.09	12993.5	25.1596	154.115
10	125890	12672.1	5187.12	13692.6	22.2609	155.43
11	100000	13475	4820.6	14311.3	19.6844	156.86
12	79433	14185.5	4441.87	14864.7	17.3868	158.215
13	63096	14782.7	4091.06	15338.4	15.4692	159.585
14	50119	15385	3673.26	15817.4	13.4283	160.98
15	39811	15867.9	3332.27	16214	11.8598	162.355
16	31623	16267.7	2961.3	16535	10.3169	163.755
17	25119	16617.3	2686.19	16833	9.18244	165.055
18	19953	16945.8	2433.82	17119.7	8.17313	166.405
19	15849	17217.2	2257.24	17364.5	7.4691	167.755
20	12589	17456.6	1999.52	17570.7	6.53433	169.14
21	10000	17640.1	1883.6	17740.3	6.09493	171.44
22	7943.3	17850.2	1746.38	17935.5	5.58776	172.66
23	6309.6	18060.6	1640.69	18134.9	5.19072	174.075
24	5011.9	18244.5	1556.91	18310.8	4.87755	175.475
25	3981.1	18432.3	1492.91	18492.6	4.63053	176.85
26	3162.3	18611.1	1440.43	18666.7	4.42567	178.2
27	2511.9	18788.2	1407.28	18840.8	4.2836	179.645
28	1995.3	18959.9	1383.81	19010.4	4.17438	180.955
29	1584.9	19136.5	1371.29	19185.6	4.09872	182.34
30	1258.9	19332.1	1367.55	19380.4	4.04636	183.72
31	1000	19514.9	1367.49	19562.8	4.00839	185.14
32	794.33	19704.1	1372.42	19751.9	3.9843	186.6
33	630.96	19903.1	1382.86	19951.1	3.9745	188.17
34	501.19	20104.2	1395.61	20152.5	3.97104	189.64
35	398.11	20305.2	1409.65	20354.1	3.97127	190.92
36	316.23	20512.2	1427.32	20561.8	3.98045	192.415
37	251.19	20725.8	1441.72	20775.9	3.97917	193.885
38	199.53	20936.9	1457.97	20987.6	3.98345	195.3
39	158.49	21157	1474.13	21208.3	3.9857	196.78
40	125.89	21371.6	1487.38	21423.3	3.98115	198.265
41	100	21595.4	1503.64	21647.6	3.98296	199.81
42	79.433	21827.8	1512.52	21880.1	3.96389	201.371
43	63.096	22050.3	1495.39	22100.9	3.87969	202.946
44	50.119	22711.3	1702.26	22775	4.28643	221.266
45	39.811	22528.5	1535.93	22580.8	3.90023	230.366
46	31.623	22770.2	1551.92	22823	3.89901	232.031
47	25.119	23018.6	1537.54	23069.9	3.82141	233.816
48	19.953	23244.5	1544.37	23295.7	3.80116	235.806
49	15.849	23479.3	1587.62	23533	3.86832	237.871
50	12.589	23691.2	1538.91	23741.1	3.71655	239.951
51	10	23924.4	1522.65	23972.8	3.64164	242.381
52	7.9433	24122.1	1525.18	24170.3	3.61784	244.791
53	6.3096	24378.9	1524.87	24426.6	3.57913	247.266
54	5.0119	24537.1	1522.37	24584.3	3.55028	249.721
55	3.9811	24728.6	1613.95	24781.2	3.73422	252.181
56	3.1623	24886.1	1545.77	24934.1	3.55429	254.826
57	2.5119	24478.4	1652.14	24534.1	3.86126	257.432
58	1.9953	24621.1	1711.79	24680.5	3.97712	260.107
59	1.5849	25359.4	1632.55	25411.9	3.68343	262.972
60	1.2589	25658.3	2348.88	25765.5	5.23056	265.932
61	1	25710.9	2206	25805.3	4.90398	272.742
62	0.79433	25874.1	2472.25	25991.9	5.458	275.962
63	0.63096	26022.5	2832.9	26176.2	6.21294	279.487
64	0.50119	26215.1	3287.65	26420.4	7.14818	283.347
65	0.39811	26380.6	3888.84	26665.7	8.38575	287.692
66	0.31623	26673.1	4619.71	27070.2	9.82601	292.487
67	0.25119	26860.4	5476.7	27413.1	11.5243	298.012
68	0.19953	27201.9	6488.5	27965	13.4161	304.407
69	0.15849	27563.3	7793.76	28644	15.7887	311.938
70	0.12589	28015.1	9587.43	29610.2	18.8922	320.498
71	0.1	28764.5	11306.7	30907	21.4588	330.768

File: Z_p29_1.txt
Index	Frequency (Hz)	Z' (Ω)	-Z'' (Ω)	Z (Ω)	-Phase (°)	Time (s)
1	1000000	2291.5	4138.86	4730.87	61.0287	131.899
2	794330	3052.44	4526.47	5459.52	56.0061	133.424
3	630960	4186.48	5044.98	6555.8	50.3131	134.884
4	501190	5265.54	5591.16	7680.3	46.7179	136.429
5	398110	6486.86	5947.53	8800.71	42.5164	142.474
6	316230	7684.04	5881.92	9676.85	37.4331	143.809
7	251190	8655.97	5798.07	10418.4	33.8155	148.9
8	199530	9684.61	5748.57	11262.2	30.6924	150.305
9	158490	10696.3	5618.31	12082	27.7111	151.735
10	125890	11662.1	5459.7	12876.8	25.087	153.085
11	100000	12578.9	5227.71	13622	22.5674	154.6
12	79433	13401.3	4919.95	14275.9	20.1595	155.965
13	63096	14219.1	4597.84	14944	17.919	157.395
14	50119	14909.1	4256.51	15504.8	15.9339	158.845
15	39811	15527.1	3878.38	16004.1	14.0245	160.205
16	31623	16070.7	3504.35	16448.4	12.3012	161.59
17	25119	16512	3152.99	16810.3	10.8106	162.945
18	19953	16931.7	2821.74	17165.3	9.4616	164.39
19	15849	17218.9	2544.47	17405.9	8.40586	165.805
20	12589	17571.8	2285.74	17719.8	7.41143	167.255
21	10000	17722.8	2090.86	17845.7	6.7284	169.68
22	7943.3	17964	1909.64	18065.3	6.06794	171.015
23	6309.6	18168.9	1748.47	18252.9	5.49688	172.425
24	5011.9	18362.4	1614.7	18433.2	5.0254	173.925
25	3981.1	18540.9	1513.04	18602.5	4.66531	175.355
26	3162.3	18709.4	1437.26	18764.5	4.39284	176.805
27	2511.9	18874.1	1373.39	18924	4.16184	178.275
28	1995.3	19050.6	1325.64	19096.6	3.98051	179.785
29	1584.9	19209.9	1287.37	19252.9	3.83402	181.155
30	1258.9	19364.6	1265.29	19405.9	3.73839	182.59
31	1000	19531.2	1242.6	19570.7	3.64032	183.99
32	794.33	19704	1232.66	19742.5	3.5797	185.505
33	630.96	19866.2	1226.22	19904	3.53205	186.91
34	501.19	20045.1	1222.24	20082.3	3.48926	188.35
35	398.11	20217.1	1223.11	20254.1	3.46211	189.73
36	316.23	20389.6	1227.31	20426.5	3.44465	191.125
37	251.19	20576.9	1231.48	20613.7	3.42494	192.65
38	199.53	20764.4	1243.78	20801.6	3.4279	194.15
39	158.49	20932.2	1248.18	20969.4	3.41249	195.61
40	125.89	21128.2	1257.58	21165.6	3.4063	197.2
41	100	21306.5	1265.79	21344	3.39988	198.555
42	79.433	21491.9	1272.4	21529.5	3.38817	200.02
43	63.096	21668	1325.88	21708.5	3.50161	201.576
44	50.119	22153.3	1325.4	22192.9	3.42384	219.896
45	39.811	22097.3	1306.67	22135.9	3.38409	229.121
46	31.623	22279.6	1291.11	22317	3.31659	230.936
47	25.119	22487.9	1275.21	22524	3.24557	232.621
48	19.953	22663.7	1356.15	22704.3	3.42437	234.721
49	15.849	22868.4	1248.63	22902.5	3.12527	236.901
50	12.589	23079.1	1345.87	23118.3	3.33746	239.056
51	10	23264.2	1335.21	23302.5	3.2848	241.536
52	7.9433	23430.5	1364.02	23470.2	3.33174	243.971
53	6.3096	23644.5	1343.39	23682.7	3.25182	246.421
54	5.0119	23780.6	1398.54	23821.7	3.36569	248.986
55	3.9811	24018.6	1391.9	24058.9	3.31664	251.661
56	3.1623	24256.6	1569.48	24307.4	3.70206	254.386
57	2.5119	24640	1932.24	24715.7	4.48389	257.187
58	1.9953	24376.9	1641.97	24432.2	3.85349	259.982
59	1.5849	24543.2	1468.23	24587.1	3.42349	263.332
60	1.2589	24963.7	1783.59	25027.3	4.08669	266.327
61	1	24965.8	2137.54	25057.2	4.89367	273.227
62	0.79433	25147.2	2384.68	25260.1	5.41708	276.457
63	0.63096	25357.5	2689.59	25499.7	6.05455	280.057
64	0.50119	25532	3085.48	25717.8	6.89063	284.012
65	0.39811	25744.6	3629.18	25999.2	8.02403	288.422
66	0.31623	25995.4	4242.39	26339.3	9.26883	293.312
67	0.25119	26208.8	5091.44	26698.8	10.9936	298.882
68	0.19953	26510.3	6010.79	27183.2	12.7749	305.162
69	0.15849	26902.7	7253.92	27863.5	15.0901	312.418
70	0.12589	27527.9	8642.5	28852.7	17.4299	321.083
71	0.1	27856.7	10198.1	29664.7	20.1073	331.413

File: Z_p30_1.txt
Index	Frequency (Hz)	Z' (Ω)	-Z'' (Ω)	Z (Ω)	-Phase (°)	Time (s)
1	1000000	2537.06	4306.52	4998.28	59.4968	131.886
2	794330	3446.8	4690.17	5820.5	53.6879	133.396
3	630960	4649.13	5055.08	6867.92	47.3954	135.041
4	501190	5735.72	5429.84	7898.21	43.4308	136.646
5	398110	7212.84	5508.05	9075.45	37.367	142.806
6	316230	8348.11	5411.7	9948.74	32.9535	144.211
7	251190	9147.36	5043.17	10445.5	28.869	149.292
8	199530	10046	4826.65	11145.3	25.6622	150.702
9	158490	10838.6	4552.52	11755.9	22.7837	152.287
10	125890	11546.4	4235.2	12298.6	20.143	153.692
11	100000	12184.1	3924.65	12800.6	17.8544	155.152
12	79433	12735	3611.34	13237.1	15.8321	156.602
13	63096	13237	3297.53	13641.6	13.9885	158.057
14	50119	13689.7	2991.85	14012.8	12.328	159.577
15	39811	14075.5	2699.8	14332.1	10.8579	160.982
16	31623	14395.8	2462.58	14605	9.70718	162.482
17	25119	14700	2223.75	14867.3	8.60222	164.482
18	19953	14978	2031.68	15115.2	7.72467	166.007
19	15849	15157.5	1860.78	15271.3	6.99876	167.522
20	12589	15400.5	1725.64	15496.9	6.39336	168.977
21	10000	15552.4	1608.87	15635.4	5.90613	171.362
22	7943.3	15737.4	1506.3	15809.3	5.46739	172.742
23	6309.6	15913	1420.04	15976.2	5.09945	174.327
24	5011.9	16090.4	1357.16	16147.5	4.82124	175.822
25	3981.1	16246.2	1300.03	16298.1	4.5751	177.342
26	3162.3	16412.1	1264.2	16460.7	4.40472	178.827
27	2511.9	16570.8	1236.16	16616.9	4.26628	180.472
28	1995.3	16722.2	1217.36	16766.5	4.16374	181.972
29	1584.9	16886	1206.37	16929.1	4.08639	183.427
30	1258.9	17050.3	1199.29	17092.5	4.02345	184.887
31	1000	17219.9	1202.38	17261.8	3.99419	186.322
32	794.33	17377.5	1205.33	17419.3	3.96776	187.867
33	630.96	17555.6	1212.73	17597.5	3.95168	189.517
34	501.19	17725.4	1220.13	17767.3	3.93775	191.142
35	398.11	17908.2	1231.75	17950.5	3.93469	192.567
36	316.23	18094.4	1242.56	18137	3.92839	194.027
37	251.19	18265.8	1254.09	18308.8	3.92765	195.562
38	199.53	18455.8	1267.2	18499.2	3.92784	197.052
39	158.49	18644.3	1280.28	18688.2	3.92828	198.527
40	125.89	18832.3	1292.44	18876.6	3.92599	200.057
41	100	19039	1303.76	19083.6	3.91739	201.443
42	79.433	19219.7	1312.43	19264.5	3.9064	203.003
43	63.096	19432.5	1318.35	19477.2	3.88114	204.583
44	50.119	19582.5	1276.85	19624.1	3.73061	223.043
45	39.811	19832.2	1316.07	19875.8	3.79658	232.203
46	31.623	20024.9	1326.85	20068.8	3.79089	233.933
47	25.119	20245.5	1335.57	20289.5	3.77427	235.683
48	19.953	20436.6	1314.19	20478.9	3.67937	237.723
49	15.849	20621.6	1283.14	20661.5	3.56053	239.768
50	12.589	20846.8	1285.57	20886.4	3.52881	241.928
51	10	21026.9	1242.84	21063.6	3.38265	244.278
52	7.9433	21160.2	1222.09	21195.5	3.30541	246.853
53	6.3096	21373.9	1228.22	21409.2	3.28879	249.383
54	5.0119	21524.1	1216.28	21558.4	3.23422	251.973
55	3.9811	21708.7	1199.52	21741.8	3.16267	254.544
56	3.1623	21836.7	1204.72	21869.9	3.15779	257.294
57	2.5119	22531.6	1456.64	22578.6	3.69895	260.074
58	1.9953	23024	1460.13	23070.3	3.6287	262.924
59	1.5849	22163	1418.45	22208.3	3.66199	265.874
60	1.2589	22295.8	742.868	22308.1	1.90832	268.879
61	1	22477.1	1485.95	22526.2	3.78229	275.784
62	0.79433	22596.4	1628.23	22654.9	4.12146	279.099
63	0.63096	22718.6	1800.49	22789.8	4.53133	282.844
64	0.50119	22827.8	2055.26	22920.1	5.14466	286.829
65	0.39811	22957.3	2397	23082.1	5.96073	291.299
66	0.31623	23112.1	2809.48	23282.2	6.9308	296.339
67	0.25119	23217	3313.54	23452.2	8.12244	301.934
68	0.19953	23450.6	3900.78	23772.8	9.44413	308.42
69	0.15849	23653.2	4699.36	24115.5	11.2371	315.825
70	0.12589	23900.3	5779.25	24589.1	13.5936	324.5
71	0.1	24223.5	6959.39	25203.4	16.0293	336.05

File: Z_p31_1.txt
Index	Frequency (Hz)	Z' (Ω)	-Z'' (Ω)	Z (Ω)	-Phase (°)	Time (s)
1	1000000	2247	4062.38	4642.41	61.052	132.288
2	794330	3067.18	4478.09	5427.79	55.5916	133.833
3	630960	4138.65	4907.44	6419.61	49.8577	135.443
4	501190	5233.21	5395.56	7516.55	45.8751	137.063
5	398110	6569.8	5618.12	8644.4	40.5352	142.078
6	316230	7735.45	5565.6	9529.59	35.7347	143.523
7	251190	8641.38	5421.3	10201.2	32.1027	147.809
8	199530	9635.78	5278.9	10987	28.7158	149.244
9	158490	10555.6	5044.12	11698.9	25.5414	150.719
10	125890	11402.6	4754.94	12354.3	22.6363	152.149
11	100000	12165.2	4429.13	12946.4	20.0056	153.684
12	79433	12830.9	4089.39	13466.8	17.6778	155.154
13	63096	13430.1	3726.22	13937.4	15.5069	156.799
14	50119	13929.6	3372.84	14332.1	13.6113	158.279
15	39811	14362.5	3034.12	14679.5	11.9285	159.834
16	31623	14743.8	2721.41	14992.9	10.4579	161.224
17	25119	15038.8	2466.18	15239.7	9.3129	162.634
18	19953	15314.8	2213.11	15473.9	8.22275	164.064
19	15849	15568.9	2038.99	15701.9	7.46131	165.504
20	12589	15772	1861.55	15881.5	6.73141	167.024
21	10000	15955.8	1748.57	16051.3	6.25402	169.364
22	7943.3	16150.3	1641.75	16233.5	5.80443	170.624
23	6309.6	16340.2	1556.73	16414.2	5.44214	172.079
24	5011.9	16519.8	1492.68	16587.1	5.16306	173.454
25	3981.1	16700	1451.15	16763	4.96623	174.784
26	3162.3	16873.8	1422.26	16933.6	4.81795	176.239
27	2511.9	17044.8	1407.35	17102.8	4.7201	177.749
28	1995.3	17221.7	1405.42	17279	4.66544	179.209
29	1584.9	17409.8	1415.84	17467.2	4.64931	180.529
30	1258.9	17598.2	1433.52	17656.5	4.65693	181.844
31	1000	17784.3	1462.51	17844.4	4.70118	183.254
32	794.33	17980.2	1496.11	18042.3	4.75657	184.724
33	630.96	18190.2	1540.47	18255.4	4.84062	186.039
34	501.19	18398.1	1590.69	18466.8	4.94146	187.494
35	398.11	18620.4	1647.62	18693.1	5.05664	188.849
36	316.23	18857	1713.99	18934.8	5.19357	190.364
37	251.19	19097.1	1784.48	19180.3	5.33836	191.854
38	199.53	19346.5	1865.16	19436.2	5.50677	193.309
39	158.49	19612.3	1953.87	19709.4	5.68929	194.839
40	125.89	19883.4	2047.97	19988.6	5.88065	196.449
41	100	20174.5	2153.04	20289.1	6.09161	197.934
42	79.433	20475.7	2265.66	20600.7	6.31416	199.469
43	63.096	20779.5	2386.3	20916	6.55111	201.05
44	50.119	21038.4	2467.49	21182.6	6.68938	219.48
45	39.811	21508.8	2664.62	21673.2	7.06213	228.6
46	31.623	21881.2	2849.58	22066	7.41984	230.25
47	25.119	22296.1	2984.65	22495	7.62452	232.01
48	19.953	22699.9	3193.6	22923.5	8.00824	233.99
49	15.849	23135.5	3398.95	23383.8	8.35783	236.065
50	12.589	23570.7	3589.5	23842.4	8.65885	238.18
51	10	24073.5	3882.6	24384.6	9.16182	240.48
52	7.9433	24578.1	4097.88	24917.4	9.46579	242.975
53	6.3096	25164.9	4447.26	25554.9	10.0221	245.375
54	5.0119	25640.8	4782.95	26083.1	10.5663	247.965
55	3.9811	26259.5	5203.2	26770	11.2077	250.575
56	3.1623	26807.6	5572.38	27380.6	11.7426	253.145
57	2.5119	27957.1	6237.26	28644.4	12.5768	255.776
58	1.9953	28859.7	7110.89	29722.9	13.8417	258.566
59	1.5849	29042.1	7704.23	30046.6	14.8571	261.391
60	1.2589	30703.2	8793.06	31937.5	15.9811	264.556
61	1	30618.3	9336.19	32010.1	16.9576	271.456
62	0.79433	31548	10527.9	33258.2	18.4544	274.661
63	0.63096	32618.9	11916.1	34727.3	20.0679	278.261
64	0.50119	33675.8	13568.4	36306.5	21.9452	282.176
65	0.39811	34939.5	15704.1	38306.5	24.2022	286.541
66	0.31623	36325.4	18064.3	40569.1	26.4408	291.526
67	0.25119	37720.6	21108.9	43225.4	29.2319	297.141
68	0.19953	39531.2	24434.5	46473.2	31.7205	303.486
69	0.15849	41805	28479.6	50584.1	34.2646	311.612
70	0.12589	43802	33576.9	55190.8	37.4724	320.262
71	0.1	46989.4	39772.3	61561.7	40.2449	330.692

File: Z_p32_1.txt
Index	Frequency (Hz)	Z' (Ω)	-Z'' (Ω)	Z (Ω)	-Phase (°)	Time (s)
1	1000000	2231.58	4155.66	4716.94	61.7643	17.6821
2	794330	3036.45	4568.81	5485.8	56.3918	19.2371
3	630960	4148.85	5090.82	6567.3	50.8211	20.7372
4	501190	5236	5479.9	7579.25	46.3039	22.2772
5	398110	6521.67	5957.01	8832.79	42.4091	28.3923
6	316230	7693.48	6151.61	9850.48	38.6454	29.7123
7	251190	8651.86	5926.44	10487	34.4108	34.7874
8	199530	9755.01	5906.26	11403.7	31.1932	36.1775
9	158490	10800.9	5785.18	12252.6	28.1745	37.6275
10	125890	11769	5609.2	13037.3	25.4829	39.0825
11	100000	12700.2	5371.98	13789.6	22.9276	40.6325
12	79433	13539	5099.5	14467.6	20.639	42.0226
13	63096	14331.6	4733.54	15093.1	18.2777	43.6026
14	50119	15061.6	4439.84	15702.3	16.4244	45.2576
15	39811	15712.4	4093.19	16236.8	14.6014	46.9477
16	31623	16259.8	3756.36	16688	13.0083	48.3977
17	25119	16765.6	3406	17108.1	11.4836	49.8477
18	19953	17181.1	3103.09	17459	10.2379	51.4777
19	15849	17575.1	2791.05	17795.3	9.02365	52.9078
20	12589	17912	2572.86	18095.9	8.17397	54.3978
21	10000	18155.6	2383.81	18311.4	7.48009	56.8628
22	7943.3	18437.1	2200.5	18568	6.80615	58.2579
23	6309.6	18688.2	2051.9	18800.5	6.26577	59.6579
24	5011.9	18916.9	1930.01	19015.1	5.82547	61.2279
25	3981.1	19150.1	1831.44	19237.5	5.46292	62.803
26	3162.3	19352.5	1766.86	19433	5.21656	64.258
27	2511.9	19567.2	1717.71	19642.4	5.01687	65.928
28	1995.3	19775.5	1689.9	19847.6	4.88429	67.493
29	1584.9	19991.2	1669.75	20060.8	4.77449	68.7781
30	1258.9	20199.6	1669.98	20268.5	4.72612	71.2881
31	1000	20413.8	1679.43	20482.8	4.70308	72.9031
32	794.33	20623.9	1699.21	20693.8	4.70997	74.5682
33	630.96	20851.5	1733.69	20923.4	4.75291	76.1282
34	501.19	21083.6	1778.49	21158.5	4.8217	77.7232
35	398.11	21331	1832.64	21409.6	4.91047	79.1783
36	316.23	21578.1	1896.71	21661.3	5.02337	80.8083
37	251.19	21846.2	1973.48	21935.2	5.16179	82.3933
38	199.53	22107	2062.25	22203	5.32939	84.0233
39	158.49	22385.1	2159.83	22489	5.51115	85.7534
40	125.89	22675.2	2272.7	22788.8	5.72356	87.4134
41	100	22990.8	2397.89	23115.6	5.95429	88.9184
42	79.433	23310.6	2535.04	23448	6.20656	90.5435
43	63.096	23622.1	2706.5	23776.7	6.53616	92.2885
44	50.119	25378.6	3197.16	25579.2	7.18023	110.774
45	39.811	24410.1	3056.75	24600.7	7.1377	119.909
46	31.623	24840.2	3303.38	25058.9	7.57505	121.684
47	25.119	25263.5	3568.36	25514.2	8.03961	123.329
48	19.953	25673.4	3825.44	25956.8	8.47497	125.469
49	15.849	26164	4133.99	26488.6	8.97869	127.639
50	12.589	26712.2	4488.32	27086.7	9.53804	129.829
51	10	27301.6	4874.09	27733.2	10.1223	132.294
52	7.9433	27953.8	5269.72	28446.1	10.6759	134.804
53	6.3096	28577.1	5777.93	29155.4	11.4304	137.424
54	5.0119	29266.1	6375.59	29952.5	12.2898	140.004
55	3.9811	29964	7039.54	30779.8	13.2209	142.634
56	3.1623	31110.9	7953.69	32111.5	14.3408	145.414
57	2.5119	31470.3	9486.7	32869.1	16.7754	148.285
58	1.9953	32678.8	7787.91	33594	13.4045	151.24
59	1.5849	34320.1	10405.1	35862.7	16.8661	154.14
60	1.2589	34866.6	13255.2	37301.2	20.8153	157.22
61	1	36427.2	13701.7	38918.8	20.6133	164.35
62	0.79433	37961.5	15427.4	40976.6	22.1166	167.7
63	0.63096	39604.4	17460	43282.4	23.7908	171.405
64	0.50119	41500.5	19820.8	45990.8	25.5293	175.295
65	0.39811	43500.7	22478.6	48965.3	27.3272	179.785
66	0.31623	45847.9	25764	52591	29.3336	184.71
67	0.25119	48735.9	29311.1	56871.2	31.0239	190.385
68	0.19953	51704.6	33780.3	61761.4	33.1579	196.955
69	0.15849	55177.3	38758.7	67429.8	35.0857	204.481
70	0.12589	59101.7	44115.5	73750.8	36.7389	213.201
71	0.1	62789.1	51167	80997.1	39.1767	223.576