Folder: Streamlit_cement_impedance/data/20200619 (part 15)

File: Z_p50_2.txt
Index	Frequency (Hz)	Z' (Ω)	-Z'' (Ω)	Z (Ω)	-Phase (°)	Time (s)
1	1000000	2405.94	1653.49	2919.35	34.4989	221.876
2	794330	2648.32	1532.97	3059.99	30.0642	223.596
3	630960	2925.84	1471.27	3274.93	26.6958	225.156
4	501190	3202.22	1382.54	3487.92	23.3519	226.606
5	398110	3458.71	1283.07	3689.04	20.3532	230.871
6	316230	3682.26	1189.43	3869.59	17.9014	232.311
7	251190	3817.08	1037.01	3955.44	15.199	236.736
8	199530	3996.9	948.582	4107.93	13.3509	237.991
9	158490	4144.94	857.971	4232.8	11.6946	239.431
10	125890	4269.26	764.378	4337.15	10.1508	240.731
11	100000	4367.02	677.744	4419.3	8.82169	242.166
12	79433	4448.11	599.527	4488.33	7.67621	243.546
13	63096	4518.34	529.192	4549.22	6.68011	244.966
14	50119	4574.66	467.72	4598.51	5.83773	246.516
15	39811	4623.47	413.557	4641.93	5.11135	247.881
16	31623	4669.4	369.304	4683.98	4.52213	249.206
17	25119	4705.84	329.896	4717.39	4.01008	250.526
18	19953	4737.61	297.042	4746.91	3.58767	251.931
19	15849	4769.1	271.148	4776.8	3.25406	253.391
20	12589	4797.4	248.715	4803.84	2.96777	254.706
21	10000	4822.5	232.493	4828.1	2.7601	256.061
22	7943.3	4848.97	217.007	4853.82	2.56246	257.851
23	6309.6	4873.65	205.679	4877.98	2.41658	259.236
24	5011.9	4897.05	196.94	4901.01	2.30297	260.636
25	3981.1	4920.94	190.485	4924.63	2.21675	262.041
26	3162.3	4944.43	185.975	4947.93	2.15405	263.416
27	2511.9	4965.44	183.362	4968.82	2.11484	264.776
28	1995.3	4987.36	180.563	4990.63	2.07344	266.121
29	1584.9	5011.1	180.075	5014.33	2.05805	267.426
30	1258.9	5035.37	180.332	5038.6	2.05106	268.827
31	1000	5059.33	181.916	5062.6	2.05927	270.192
32	794.33	5083.6	184.217	5086.93	2.07535	271.507
33	630.96	5104.22	187.439	5107.66	2.10309	272.927
34	501.19	5130.81	192.756	5134.43	2.1515	274.282
35	398.11	5157.49	198.827	5161.32	2.20773	275.482
36	316.23	5182.4	205.847	5186.49	2.27462	276.922
37	251.19	5209.13	216.781	5213.64	2.38302	278.357
38	199.53	5238.84	228.531	5243.82	2.4978	279.832
39	158.49	5268.54	242.585	5274.12	2.63627	281.117
40	125.89	5299.79	259.115	5306.12	2.79905	282.512
41	100	5331.85	279.129	5339.15	2.99677	283.922
42	79.433	5365.43	302.485	5373.95	3.22673	285.387
43	63.096	5403.18	329.141	5413.2	3.48593	287.007
44	50.119	5426.84	350.649	5438.16	3.69696	288.422
45	39.811	5488.89	391.402	5502.82	4.07875	297.622
46	31.623	5539.34	431.861	5556.15	4.4579	299.237
47	25.119	5591.94	474.722	5612.05	4.85243	300.887
48	19.953	5648.03	526.901	5672.55	5.32967	302.712
49	15.849	5716.07	580.53	5745.47	5.79914	304.787
50	12.589	5788.23	646.078	5824.17	6.36895	306.962
51	10	5866.99	716.398	5910.56	6.96174	309.272
52	7.9433	5957.57	797.532	6010.72	7.62478	311.637
53	6.3096	6046.24	884.557	6110.61	8.32325	313.992
54	5.0119	6152.07	983.236	6230.14	9.08034	316.507
55	3.9811	6266.03	1096.79	6361.3	9.92834	318.947
56	3.1623	6377.58	1225.87	6494.32	10.8804	321.572
57	2.5119	6522.17	1382.3	6667.04	11.9661	324.158
58	1.9953	6654.6	1567.14	6836.64	13.2515	326.838
59	1.5849	6831.57	1750.47	7052.27	14.3719	329.603
60	1.2589	6988.68	2022.34	7275.4	16.139	332.503
61	1	7199.45	2301.05	7558.23	17.7246	337.613
62	0.79433	7438.44	2643.75	7894.29	19.5661	340.818
63	0.63096	7671.81	3035.13	8250.37	21.5848	344.348
64	0.50119	7964.72	3521.96	8708.67	23.8548	348.193
65	0.39811	8276.46	4090.97	9232.32	26.3027	352.443
66	0.31623	8688.63	4765.09	9909.51	28.7416	357.293
67	0.25119	9104.88	5527.15	10651.2	31.26	362.748
68	0.19953	9646.63	6405.79	11579.8	33.5859	369.083
69	0.15849	10241.7	7486.77	12686.4	36.1672	376.444
70	0.12589	10988.6	8805.48	14081.4	38.7062	385.019
71	0.1	11883.4	10126.7	15613	40.4366	395.194

File: Z_p50_3.txt
Index	Frequency (Hz)	Z' (Ω)	-Z'' (Ω)	Z (Ω)	-Phase (°)	Time (s)
1	1000000	2407.9	1656.24	2922.51	34.5216	440.699
2	794330	2638.95	1535.08	3052.95	30.1866	442.86
3	630960	2929.61	1467.35	3276.55	26.6049	445.171
4	501190	3197.5	1380.81	3482.91	23.3566	447.507
5	398110	3464.06	1282.59	3693.88	20.3175	455.446
6	316230	3685.71	1192.01	3873.67	17.922	457.482
7	251190	3820.03	1037.87	3958.51	15.1998	465.231
8	199530	3998.16	950.806	4109.66	13.3771	467.407
9	158490	4147.03	854.721	4234.19	11.6458	469.573
10	125890	4268.42	765.108	4336.45	10.1623	471.759
11	100000	4369.07	678.864	4421.5	8.83195	473.975
12	79433	4452.23	600.462	4492.54	7.68101	476.066
13	63096	4519.65	530.28	4550.65	6.69179	478.517
14	50119	4579.43	467.621	4603.24	5.83046	480.758
15	39811	4628.79	414.886	4647.35	5.12182	482.949
16	31623	4669.42	366.131	4683.75	4.48342	485.37
17	25119	4707.26	330.521	4718.85	4.01644	487.706
18	19953	4740.3	298.032	4749.66	3.59756	489.877
19	15849	4771.38	270.913	4779.07	3.24969	492.023
20	12589	4801.58	249.927	4808.08	2.97962	494.14
21	10000	4825.18	232.132	4830.76	2.75429	496.451
22	7943.3	4854.25	217.188	4859.11	2.56181	498.727
23	6309.6	4877.54	205.996	4881.89	2.41837	500.913
24	5011.9	4900.9	197.756	4904.89	2.31068	503.059
25	3981.1	4921.39	190.654	4925.08	2.21852	505.245
26	3162.3	4945.78	186.465	4949.3	2.15913	507.431
27	2511.9	4969.06	182.679	4972.42	2.10544	509.552
28	1995.3	4992.36	180.579	4995.63	2.07154	511.648
29	1584.9	5015.87	180.51	5019.12	2.06105	513.649
30	1258.9	5036.52	180.355	5039.74	2.05085	515.75
31	1000	5062.89	182.089	5066.17	2.05978	517.931
32	794.33	5086.5	184.73	5089.86	2.07994	520.227
33	630.96	5112.89	188.117	5116.35	2.10711	522.418
34	501.19	5136.53	192.346	5140.13	2.14453	524.579
35	398.11	5162.22	199.386	5166.07	2.21189	526.57
36	316.23	5185.52	206.936	5189.65	2.28526	528.646
37	251.19	5213.18	216.099	5217.66	2.3737	530.792
38	199.53	5243.62	228.388	5248.59	2.49396	532.948
39	158.49	5270.2	242.226	5275.76	2.63154	535.089
40	125.89	5303.5	258.547	5309.8	2.79097	537.285
41	100	5335.17	279.5	5342.49	2.99888	539.361
42	79.433	5371.39	302.158	5379.88	3.21968	541.617
43	63.096	5406.92	327.508	5416.83	3.46629	544.163
44	50.119	5460.93	359.359	5472.74	3.76494	546.474
45	39.811	5491.92	392.235	5505.91	4.08515	556.496
46	31.623	5540.58	429.533	5557.2	4.43298	559.042
47	25.119	5594.12	474.372	5614.2	4.84699	561.648
48	19.953	5653.06	525.016	5677.39	5.306	564.419
49	15.849	5719.08	580.842	5748.5	5.7992	567.195
50	12.589	5789.04	642.008	5824.53	6.32828	570.086
51	10	5869.42	713.084	5912.58	6.92699	573.152
52	7.9433	5957.99	791.967	6010.4	7.57166	576.203
53	6.3096	6052.36	880.647	6116.09	8.27871	579.299
54	5.0119	6157.07	980.264	6234.62	9.04611	582.555
55	3.9811	6268.68	1092.96	6363.24	9.89025	585.811
56	3.1623	6397.27	1221.27	6512.8	10.808	589.257
57	2.5119	6522.94	1377.72	6666.84	11.9263	592.683
58	1.9953	6665.34	1566.14	6846.86	13.2228	596.149
59	1.5849	6829.8	1767.15	7054.72	14.5066	599.61
60	1.2589	7028.89	2020.9	7313.64	16.0407	603.317
61	1	7198.46	2292.47	7554.68	17.665	609.809
62	0.79433	7436.89	2631.4	7888.7	19.4853	613.56
63	0.63096	7672.94	3030.25	8249.63	21.5504	617.696
64	0.50119	7966.07	3494.01	8698.64	23.6828	622.147
65	0.39811	8288.05	4053.53	9226.21	26.0624	627.103
66	0.31623	8690.58	4737.7	9898.08	28.5972	632.589
67	0.25119	9141.44	5489.23	10662.9	30.9839	638.715
68	0.19953	9627.61	6455.44	11591.5	33.8424	645.776
69	0.15849	10228	7474.78	12668.2	36.1599	653.722
70	0.12589	10948.1	8757.24	14019.6	38.6559	662.884
71	0.1	11904.3	10204.4	15679.4	40.6034	673.68

File: Z_p51_1.txt
Index	Frequency (Hz)	Z' (Ω)	-Z'' (Ω)	Z (Ω)	-Phase (°)	Time (s)
1	1000000	1911.8	1141.25	2226.52	30.8351	67.944
2	794330	2060.15	1054.72	2314.44	27.1109	69.6291
3	630960	2238.19	996.591	2450.04	24.0018	71.3691
4	501190	2411.97	929.4	2584.84	21.073	72.9641
5	398110	2571.42	841.301	2705.54	18.1168	77.2692
6	316230	2716.64	774.618	2824.92	15.9149	78.6042
7	251190	2788.85	662.606	2866.48	13.3652	82.1243
8	199530	2903.19	602.396	2965.03	11.7222	83.7343
9	158490	2994.53	540.603	3042.94	10.2334	85.2094
10	125890	3069.24	480.873	3106.68	8.90442	86.5294
11	100000	3132.17	426.289	3161.05	7.75035	87.9094
12	79433	3182.19	376.017	3204.33	6.73899	89.2394
13	63096	3223.78	331.838	3240.81	5.87701	90.6345
14	50119	3259.23	292.958	3272.37	5.13626	91.9345
15	39811	3291.58	258.636	3301.73	4.49279	93.2495
16	31623	3317.13	229.086	3325.03	3.95065	94.5645
17	25119	3339.74	205.472	3346.06	3.52059	95.9096
18	19953	3361.5	185.147	3366.59	3.15259	97.2446
19	15849	3380.71	168.46	3384.9	2.85268	98.5596
20	12589	3398.53	154.074	3402.02	2.59575	99.9146
21	10000	3412.88	142.956	3415.87	2.39856	101.25
22	7943.3	3429.97	133.819	3432.58	2.23425	102.58
23	6309.6	3443.33	126.701	3445.66	2.10732	103.88
24	5011.9	3458.14	121.399	3460.27	2.01056	105.225
25	3981.1	3470.91	117.62	3472.9	1.94087	106.52
26	3162.3	3483.22	115.461	3485.13	1.89854	107.81
27	2511.9	3496.97	114.059	3498.83	1.86813	109.165
28	1995.3	3511.32	114.108	3513.17	1.86129	110.48
29	1584.9	3525.2	115.419	3527.09	1.87526	111.765
30	1258.9	3536.47	117.99	3538.44	1.91089	113.01
31	1000	3552.79	120.829	3554.84	1.94785	114.34
32	794.33	3568.09	125.512	3570.29	2.01463	115.74
33	630.96	3582.88	130.901	3585.27	2.09239	116.99
34	501.19	3599.45	137.217	3602.06	2.18315	118.335
35	398.11	3617.34	145.859	3620.28	2.30904	120.1
36	316.23	3636.13	155.901	3639.47	2.45509	121.96
37	251.19	3655.41	167.851	3659.26	2.62909	125.45
38	199.53	3676.09	182.407	3680.61	2.84068	127.09
39	158.49	3699.6	198.845	3704.94	3.07656	131.49
40	125.89	3720.85	217.999	3727.23	3.35303	133.125
41	100	3749.79	240.067	3757.47	3.66315	134.745
42	79.433	3777.47	265.893	3786.82	4.02636	136.72
43	63.096	3810.31	294.369	3821.66	4.41767	140.775
44	50.119	3850.5	319.798	3863.76	4.74773	142.6
45	39.811	3883.69	364.149	3900.73	5.3566	154.151
46	31.623	3928.21	405.577	3949.09	5.89475	156.701
47	25.119	3977.7	453.539	4003.47	6.5048	160.321
48	19.953	4030.99	507.715	4062.84	7.17877	163.116
49	15.849	4090.41	569.762	4129.9	7.92983	167.301
50	12.589	4157.08	637.888	4205.73	8.72378	170.986
51	10	4229.88	714.592	4289.82	9.58895	176.481
52	7.9433	4309.28	802.951	4383.45	10.5549	180.871
53	6.3096	4399.99	903.722	4491.84	11.6067	185.416
54	5.0119	4496.52	1018.28	4610.38	12.7599	190.786
55	3.9811	4605.41	1154.49	4747.91	14.0729	196.761
56	3.1623	4722.14	1311.81	4900.96	15.5253	202.702
57	2.5119	4847.49	1494.92	5072.77	17.1393	205.947
58	1.9953	4989.01	1713.28	5274.99	18.953	208.692
59	1.5849	5149.43	1969.42	5513.19	20.9296	211.487
60	1.2589	5313.74	2274.94	5780.24	23.177	214.437
61	1	5500.72	2632.61	6098.25	25.5755	219.497
62	0.79433	5727.8	3068.8	6498.1	28.1812	222.657
63	0.63096	5965.31	3579.17	6956.68	30.9636	226.467
64	0.50119	6218.36	4199.82	7503.77	34.0347	230.287
65	0.39811	6531.9	4950.6	8195.98	37.1589	234.552
66	0.31623	6848.35	5874.22	9022.55	40.6216	239.252
67	0.25119	7293.43	6961.99	10082.8	43.6681	244.757
68	0.19953	7760.67	8304.73	11366.5	46.9396	251.022
69	0.15849	8290.77	9870.33	12890.3	49.9708	258.233
70	0.12589	8828.53	11781.5	14722.4	53.1538	267.043
71	0.1	9565.82	14255	17167.1	56.1364	277.303

File: Z_p51_2.txt
Index	Frequency (Hz)	Z' (Ω)	-Z'' (Ω)	Z (Ω)	-Phase (°)	Time (s)
1	1000000	1912.8	1126.01	2219.61	30.4842	358.882
2	794330	2056.41	1053.66	2310.63	27.1297	360.407
3	630960	2236.21	992.341	2446.51	23.9297	361.952
4	501190	2408.93	928.613	2581.72	21.081	363.562
5	398110	2569.03	837.823	2702.2	18.0624	368.047
6	316230	2715.03	764.063	2820.5	15.7176	369.572
7	251190	2784.27	660.312	2861.5	13.3417	373.828
8	199530	2897.24	600.697	2958.86	11.7134	375.163
9	158490	2988.36	539.121	3036.6	10.2266	376.603
10	125890	3065.04	479.092	3102.25	8.88394	377.958
11	100000	3125.19	424.261	3153.86	7.73094	379.363
12	79433	3175.14	374.804	3197.18	6.73223	380.633
13	63096	3218.98	330.928	3235.94	5.8697	381.953
14	50119	3255.5	291.682	3268.54	5.11985	383.283
15	39811	3284.58	258.021	3294.7	4.49167	384.593
16	31623	3311.38	227.937	3319.21	3.93771	386.033
17	25119	3334.45	204.746	3340.73	3.51373	387.378
18	19953	3354.23	184.287	3359.29	3.14477	388.723
19	15849	3372.92	167.651	3377.08	2.84554	390.083
20	12589	3390.96	153.81	3394.45	2.59709	391.408
21	10000	3407.2	141.947	3410.15	2.38561	393.208
22	7943.3	3422.13	133.372	3424.72	2.23189	394.903
23	6309.6	3435.15	126.01	3437.46	2.10081	396.288
24	5011.9	3450.25	120.795	3452.37	2.00513	397.848
25	3981.1	3463.42	117.201	3465.41	1.93813	399.128
26	3162.3	3479.45	115.005	3481.35	1.89309	400.428
27	2511.9	3492.41	113.82	3494.26	1.86665	401.803
28	1995.3	3504.6	114.014	3506.45	1.86333	403.223
29	1584.9	3517.92	115.114	3519.81	1.87418	404.613
30	1258.9	3533.45	117.163	3535.39	1.89913	405.988
31	1000	3545.32	120.587	3547.37	1.94805	407.278
32	794.33	3562.58	124.876	3564.77	2.00752	408.673
33	630.96	3577.43	130.333	3579.8	2.08648	409.948
34	501.19	3593.34	137.039	3595.95	2.18404	411.778
35	398.11	3610.14	145.609	3613.07	2.30967	413.103
36	316.23	3627.93	155.543	3631.26	2.45499	414.473
37	251.19	3648.26	167.412	3652.1	2.62735	416.053
38	199.53	3670.12	181.713	3674.61	2.83449	417.423
39	158.49	3692.88	198.088	3698.19	3.07044	418.883
40	125.89	3715.62	217.534	3721.99	3.3506	420.618
41	100	3742.08	240.256	3749.78	3.67357	422.108
42	79.433	3770.69	264.591	3779.96	4.01389	423.563
43	63.096	3803.14	293.38	3814.44	4.41114	425.043
44	50.119	3843.61	334.612	3858.15	4.97543	426.623
45	39.811	3876.86	363.324	3893.84	5.3539	435.864
46	31.623	3921.52	405.23	3942.4	5.89972	437.524
47	25.119	3968.73	452.486	3994.44	6.50437	439.094
48	19.953	4022.89	506.23	4054.62	7.17225	441.064
49	15.849	4084.41	567.825	4123.7	7.91466	443.119
50	12.589	4152.41	637.63	4201.08	8.72995	445.114
51	10	4222.33	713.822	4282.25	9.59562	447.394
52	7.9433	4304.85	800.979	4378.73	10.5402	449.809
53	6.3096	4395.7	902.42	4487.37	11.6014	452.239
54	5.0119	4488.9	1017.48	4602.77	12.7713	454.604
55	3.9811	4593.62	1151.37	4735.71	14.0711	457.129
56	3.1623	4714.72	1308.07	4892.81	15.5063	459.594
57	2.5119	4840.87	1493.06	5065.89	17.1412	462.159
58	1.9953	4970.79	1712.04	5257.36	19.0047	464.959
59	1.5849	5124.91	1969.53	5490.33	21.0221	467.884
60	1.2589	5296.67	2282.19	5767.41	23.3099	470.884
61	1	5495.16	2631.39	6092.7	25.5877	476.079
62	0.79433	5715.47	3069.96	6487.78	28.2417	479.204
63	0.63096	5947.78	3576.82	6940.44	31.0214	482.675
64	0.50119	6207.06	4211.32	7500.86	34.1558	486.61
65	0.39811	6508.6	4951.07	8177.71	37.2602	490.94
66	0.31623	6844.36	5877.04	9021.36	40.6516	495.84
67	0.25119	7281.6	6955.57	10069.8	43.6882	501.37
68	0.19953	7721.41	8325.97	11355.3	47.1575	508.145
69	0.15849	8236.73	9915.81	12890.6	50.2847	515.925
70	0.12589	8905.48	11850.9	14824	53.0765	524.695
71	0.1	9488.15	14146.8	17034	56.1506	534.826

File: Z_p51_3.txt
Index	Frequency (Hz)	Z' (Ω)	-Z'' (Ω)	Z (Ω)	-Phase (°)	Time (s)
1	1000000	1907.87	1133.38	2219.12	30.7126	682.612
2	794330	2055.99	1051.2	2309.14	27.08	684.818
3	630960	2238.98	989.121	2447.73	23.8346	686.939
4	501190	2415.13	923.639	2585.72	20.9288	689.125
5	398110	2566.72	836.75	2699.67	18.056	696.199
6	316230	2715.84	766.742	2822	15.7655	698.185
7	251190	2781.54	659.537	2858.66	13.3392	705.269
8	199530	2895.2	599.242	2956.57	11.6938	707.336
9	158490	2987.29	537.993	3035.34	10.2092	709.517
10	125890	3061.8	478.716	3098.99	8.88634	711.553
11	100000	3123.15	423.378	3151.72	7.72003	713.789
12	79433	3172.91	374.483	3194.93	6.73119	715.805
13	63096	3215.62	329.878	3232.49	5.85727	718.021
14	50119	3251.32	291.027	3264.32	5.11495	720.162
15	39811	3282.94	257.424	3293.02	4.48354	722.218
16	31623	3308.93	227.451	3316.73	3.93224	724.334
17	25119	3330.79	204.215	3337.04	3.50848	726.45
18	19953	3350.19	184.126	3355.25	3.1458	728.491
19	15849	3369.36	166.507	3373.47	2.82914	730.632
20	12589	3388.81	153.592	3392.29	2.59505	732.683
21	10000	3404.08	142.335	3407.06	2.39431	734.809
22	7943.3	3419.66	133.024	3422.24	2.22768	736.875
23	6309.6	3434.2	125.962	3436.51	2.10059	738.956
24	5011.9	3448.94	120.785	3451.05	2.00573	741.017
25	3981.1	3462.09	117.194	3464.08	1.93876	743.033
26	3162.3	3474.55	114.759	3476.44	1.89171	745.059
27	2511.9	3487.51	113.589	3489.36	1.86547	747.18
28	1995.3	3501.27	113.913	3503.12	1.86345	749.276
29	1584.9	3515.58	114.85	3517.45	1.87112	751.237
30	1258.9	3528.83	116.904	3530.77	1.89741	753.373
31	1000	3542.99	120.335	3545.04	1.94526	755.589
32	794.33	3558.92	124.726	3561.1	2.00716	757.795
33	630.96	3574.36	129.906	3576.72	2.08143	759.761
34	501.19	3589.46	136.808	3592.07	2.1827	762.003
35	398.11	3609.81	145.156	3612.72	2.30271	764.184
36	316.23	3624.82	155.14	3628.14	2.45074	766.165
37	251.19	3646	166.923	3649.82	2.62132	768.176
38	199.53	3666.88	181.002	3671.35	2.82589	770.182
39	158.49	3687.27	197.538	3692.56	3.06657	772.313
40	125.89	3710.82	216.571	3717.13	3.34011	774.429
41	100	3739.49	239.28	3747.14	3.66122	776.55
42	79.433	3768.43	264.117	3777.68	4.00912	778.706
43	63.096	3799.42	292.855	3810.69	4.40757	781.002
44	50.119	3841.25	328.652	3855.29	4.89024	783.328
45	39.811	3872.91	361.704	3889.76	5.33557	793.229
46	31.623	3916.76	402.8	3937.42	5.87166	795.71
47	25.119	3965.46	450.119	3990.92	6.47593	798.091
48	19.953	4019.43	504.721	4050.99	7.15719	800.697
49	15.849	4078.64	564.01	4117.46	7.87314	803.418
50	12.589	4146.68	633.514	4194.79	8.68628	806.114
51	10	4218.39	709.632	4277.67	9.54908	809.045
52	7.9433	4297.68	797.587	4371.06	10.5137	812.051
53	6.3096	4388.14	897.308	4478.94	11.5568	815.138
54	5.0119	4484.75	1012.76	4597.68	12.7253	818.324
55	3.9811	4592.5	1146.58	4733.47	14.0181	821.58
56	3.1623	4704.81	1299.57	4881	15.4412	824.951
57	2.5119	4832.06	1479.84	5053.59	17.0274	828.312
58	1.9953	4976.55	1707.51	5261.34	18.9376	831.813
59	1.5849	5127.5	1954.89	5487.52	20.8696	835.504
60	1.2589	5303.61	2240.75	5757.53	22.9038	839.08
61	1	5479.35	2613.7	6070.81	25.5016	845.742
62	0.79433	5699.48	3051.55	6464.98	28.1649	849.728
63	0.63096	5944.54	3557.95	6927.96	30.9015	853.999
64	0.50119	6191.51	4174.81	7467.52	33.991	858.57
65	0.39811	6482.59	4931.55	8145.19	37.2616	863.551
66	0.31623	6852.47	5829.15	8996.41	40.3866	869.183
67	0.25119	7244.98	6913.41	10014.2	43.6585	875.434
68	0.19953	7678.94	8294.58	11303.4	47.2072	882.455
69	0.15849	8170.83	9850.7	12798.4	50.3254	890.526
70	0.12589	8764.23	11797.6	14696.8	53.392	899.907
71	0.1	9515.16	14192.7	17087.1	56.161	910.963

File: Z_p52_1.txt
Index	Frequency (Hz)	Z' (Ω)	-Z'' (Ω)	Z (Ω)	-Phase (°)	Time (s)
1	1000000	2383.14	1433.77	2781.2	31.0325	141.594
2	794330	2560.78	1296.84	2870.43	26.8587	143.044
3	630960	2784.69	1202.62	3033.28	23.3581	144.484
4	501190	3001.48	1111.34	3200.61	20.3178	146.039
5	398110	3202.95	989.193	3352.22	17.1627	150.19
6	316230	3374.42	896.493	3491.47	14.8783	151.46
7	251190	3447.59	753.829	3529.04	12.3338	155.625
8	199530	3573.39	673.762	3636.35	10.6778	156.9
9	158490	3673.16	596.262	3721.24	9.22038	158.215
10	125890	3752.31	520.268	3788.2	7.89389	159.555
11	100000	3813.92	451.974	3840.6	6.7584	160.94
12	79433	3863.37	392.051	3883.21	5.79448	162.24
13	63096	3906.78	340.001	3921.54	4.97383	163.555
14	50119	3939.14	294.5	3950.13	4.27562	164.935
15	39811	3966.13	256.148	3974.39	3.69526	166.34
16	31623	3990.16	221.587	3996.31	3.17855	167.63
17	25119	4008.47	196.812	4013.3	2.8109	168.905
18	19953	4026.04	176.001	4029.89	2.50312	170.175
19	15849	4043.29	157.961	4046.37	2.23727	171.455
20	12589	4058.8	143.354	4061.33	2.02281	172.81
21	10000	4070.62	131.887	4072.76	1.85572	174.085
22	7943.3	4086.94	123.173	4088.8	1.72627	175.385
23	6309.6	4100.34	115.52	4101.96	1.61379	176.665
24	5011.9	4110.17	109.593	4111.64	1.52737	177.985
25	3981.1	4124	105.218	4125.35	1.4615	179.37
26	3162.3	4136.32	101.888	4137.57	1.41105	180.66
27	2511.9	4148.75	99.2612	4149.94	1.37057	182.01
28	1995.3	4161	97.9317	4162.16	1.34824	183.315
29	1584.9	4173.09	96.1438	4174.2	1.3198	184.475
30	1258.9	4184.93	95.0037	4186.01	1.30047	185.73
31	1000	4197.26	95.1917	4198.34	1.29922	187.055
32	794.33	4210.27	95.6069	4211.35	1.30085	188.505
33	630.96	4223.54	96.3966	4224.64	1.30747	189.825
34	501.19	4235.96	97.8372	4237.09	1.32311	191.13
35	398.11	4248.91	99.8679	4250.09	1.34645	192.46
36	316.23	4263.06	103.289	4264.31	1.38794	193.79
37	251.19	4276.47	107.468	4277.82	1.43954	195.205
38	199.53	4290.18	113.338	4291.68	1.51329	196.485
39	158.49	4303.25	120.487	4304.93	1.60382	197.81
40	125.89	4318.64	128.964	4320.56	1.71046	199.205
41	100	4330.94	139.281	4333.18	1.84197	200.555
42	79.433	4348.88	151.35	4351.51	1.9932	201.966
43	63.096	4365.41	166.28	4368.58	2.18136	203.451
44	50.119	4391.59	187.133	4395.58	2.44	204.906
45	39.811	4406.55	201.748	4411.16	2.62138	214.071
46	31.623	4431.6	224.154	4437.26	2.8956	215.686
47	25.119	4457.1	249.232	4464.07	3.20053	217.271
48	19.953	4488.05	279.759	4496.76	3.56687	219.161
49	15.849	4518.59	313.513	4529.45	3.96899	221.106
50	12.589	4552.78	350.196	4566.23	4.39848	223.141
51	10	4591.86	394.88	4608.81	4.9151	225.491
52	7.9433	4632.88	444.469	4654.15	5.48007	227.831
53	6.3096	4678.33	503.054	4705.29	6.13735	230.261
54	5.0119	4728.38	574.809	4763.19	6.93119	232.656
55	3.9811	4782.62	657.083	4827.55	7.82288	235.116
56	3.1623	4843.33	758.141	4902.31	8.89648	237.716
57	2.5119	4900.52	869.372	4977.04	10.0598	240.201
58	1.9953	4975.09	998.366	5074.27	11.347	242.856
59	1.5849	5048.92	1171.88	5183.13	13.0673	245.641
60	1.2589	5137.72	1383.31	5320.69	15.0693	248.586
61	1	5229.59	1619.16	5474.52	17.2033	253.611
62	0.79433	5342.85	1919.12	5677.07	19.758	256.962
63	0.63096	5464.96	2260.64	5914.07	22.473	260.482
64	0.50119	5581.44	2699.01	6199.77	25.807	264.407
65	0.39811	5740.84	3232.46	6588.32	29.3823	268.657
66	0.31623	5899.65	3909.3	7077.32	33.5298	273.422
67	0.25119	6155.23	4705.29	7747.69	37.3957	278.882
68	0.19953	6417.05	5700.63	8583.46	41.6165	285.112
69	0.15849	6711.05	6877.91	9609.57	45.7035	292.432
70	0.12589	6984.39	8328.32	10869.3	50.0157	300.922
71	0.1	7465.81	10211.5	12649.6	53.8289	311.113

File: Z_p52_2.txt
Index	Frequency (Hz)	Z' (Ω)	-Z'' (Ω)	Z (Ω)	-Phase (°)	Time (s)
1	1000000	2385.84	1416.45	2774.63	30.6972	422.742
2	794330	2559.86	1298.95	2870.56	26.9046	424.202
3	630960	2788.84	1209.44	3039.8	23.4451	425.632
4	501190	3006.46	1113.07	3205.88	20.3158	427.152
5	398110	3204.31	989.798	3353.7	17.1657	431.353
6	316230	3375.51	889.041	3490.63	14.7554	432.713
7	251190	3452.82	754.108	3534.21	12.3202	436.848
8	199530	3576.25	673.225	3639.06	10.6611	438.133
9	158490	3677.7	595.77	3725.64	9.20172	439.423
10	125890	3755.94	520.922	3791.9	7.89613	440.733
11	100000	3817.45	452.81	3844.21	6.76458	442.173
12	79433	3868.74	393.052	3888.66	5.80117	443.513
13	63096	3909.49	340.309	3924.28	4.97487	444.933
14	50119	3941.42	294.677	3952.42	4.27572	446.298
15	39811	3968.49	256.548	3976.77	3.69882	447.623
16	31623	3992.75	222.654	3998.95	3.19178	448.983
17	25119	4011.35	197.34	4016.2	2.81641	450.358
18	19953	4031.11	175.88	4034.95	2.49827	451.693
19	15849	4043.74	158.475	4046.84	2.24429	453.013
20	12589	4061.71	143.732	4064.25	2.02669	454.308
21	10000	4074.72	132.232	4076.87	1.8587	455.678
22	7943.3	4091.34	123.347	4093.19	1.72686	457.053
23	6309.6	4101.11	115.53	4102.74	1.61361	458.403
24	5011.9	4114.92	109.725	4116.38	1.52744	459.763
25	3981.1	4128.22	105.617	4129.57	1.46554	461.033
26	3162.3	4140.98	102.177	4142.24	1.41346	462.333
27	2511.9	4152.14	99.5585	4153.33	1.37355	463.648
28	1995.3	4165.79	97.6578	4166.93	1.34293	464.963
29	1584.9	4175.57	96.7661	4176.69	1.32756	466.248
30	1258.9	4191.55	96.197	4192.65	1.31472	467.443
31	1000	4203.16	95.6877	4204.25	1.30415	468.743
32	794.33	4214.44	95.8375	4215.53	1.3027	470.143
33	630.96	4227.08	96.3705	4228.18	1.30603	471.418
34	501.19	4238.35	97.8291	4239.48	1.32226	472.708
35	398.11	4253.1	100.696	4254.29	1.35628	473.978
36	316.23	4265.4	103.464	4266.65	1.38952	475.288
37	251.19	4278.31	107.811	4279.67	1.44352	476.633
38	199.53	4293.27	113.681	4294.77	1.51678	477.953
39	158.49	4305.38	120.932	4307.08	1.60893	479.298
40	125.89	4321.86	129.607	4323.81	1.71771	480.683
41	100	4336.22	139.955	4338.48	1.84863	482.034
42	79.433	4352.81	152.448	4355.48	2.00584	483.414
43	63.096	4373.66	167.009	4376.85	2.18678	484.919
44	50.119	4391.14	185.172	4395.04	2.4147	486.449
45	39.811	4412.23	202.974	4416.89	2.63391	495.694
46	31.623	4437.54	225.388	4443.26	2.90763	497.339
47	25.119	4462.17	250.871	4469.22	3.21788	498.934
48	19.953	4494.07	281.929	4502.91	3.58965	500.759
49	15.849	4523.01	314.799	4533.95	3.98134	502.754
50	12.589	4561.64	351.77	4575.18	4.40963	504.774
51	10	4599.65	396.816	4616.73	4.93075	507.064
52	7.9433	4638.62	447.442	4660.15	5.50971	509.394
53	6.3096	4686.33	505.317	4713.5	6.1543	511.779
54	5.0119	4734.12	577.393	4769.2	6.95368	514.169
55	3.9811	4790.67	656.78	4835.48	7.80634	516.634
56	3.1623	4843.2	753.389	4901.45	8.84184	519.164
57	2.5119	4910.06	871.062	4986.72	10.0598	521.744
58	1.9953	4986.53	1013.98	5088.57	11.494	524.339
59	1.5849	5060.34	1179.18	5195.91	13.1172	527.104
60	1.2589	5133.85	1387.47	5318.04	15.1234	529.964
61	1	5238.28	1622.93	5483.93	17.2141	535.134
62	0.79433	5358.36	1914.7	5690.17	19.6633	538.28
63	0.63096	5468.63	2278.82	5924.44	22.6219	541.8
64	0.50119	5609.72	2713.29	6231.45	25.8119	545.63
65	0.39811	5760.68	3266.36	6622.28	29.5537	549.84
66	0.31623	5943.83	3902.39	7110.4	33.2867	554.595
67	0.25119	6137.69	4745.54	7758.31	37.7105	560.095
68	0.19953	6371.08	5721.24	8562.9	41.9239	566.39
69	0.15849	6675.22	6940.7	9629.74	46.117	573.67
70	0.12589	7089.85	8376.7	10974.3	49.7562	582.25
71	0.1	7402.72	10126.3	12543.6	53.8319	592.471