Folder: Streamlit_cement_impedance/data/20200619 (part 11)

File: Z_p41_1.txt
Index	Frequency (Hz)	Z' (Ω)	-Z'' (Ω)	Z (Ω)	-Phase (°)	Time (s)
1	1000000	2427.25	1596.62	2905.29	33.3366	140.725
2	794330	2648.51	1468.79	3028.53	29.0115	142.165
3	630960	2911.8	1382.12	3223.17	25.3919	143.595
4	501190	3167.61	1288.58	3419.68	22.1364	145.15
5	398110	3414.55	1167.35	3608.58	18.8743	150.131
6	316230	3610.77	1062.09	3763.74	16.391	151.461
7	251190	3719.81	910.448	3829.6	13.7532	155.411
8	199530	3874.83	821.448	3960.95	11.9693	156.751
9	158490	3998.98	729.786	4065.03	10.3423	158.171
10	125890	4095.14	642.051	4145.17	8.9105	159.401
11	100000	4173.08	561.247	4210.65	7.65988	160.776
12	79433	4238.38	490.121	4266.62	6.59631	162.101
13	63096	4292.7	427.493	4313.93	5.68711	163.506
14	50119	4334.28	372.891	4350.29	4.91723	164.951
15	39811	4369.63	325.814	4381.76	4.26428	166.316
16	31623	4400.24	286.598	4409.56	3.72655	167.671
17	25119	4426.98	255.603	4434.35	3.30445	168.936
18	19953	4451.45	229.487	4457.36	2.95117	170.261
19	15849	4472.18	208.126	4477.02	2.6645	171.606
20	12589	4494.97	191.714	4499.06	2.44222	172.871
21	10000	4512.86	176.698	4516.32	2.24224	174.151
22	7943.3	4532.8	166.488	4535.85	2.1035	175.481
23	6309.6	4552.44	158.562	4555.2	1.99481	176.836
24	5011.9	4570.35	152.304	4572.88	1.90864	178.121
25	3981.1	4588.57	147.67	4590.95	1.84326	179.381
26	3162.3	4606.76	143.557	4609	1.78489	180.636
27	2511.9	4622.77	141.368	4624.93	1.7516	181.986
28	1995.3	4640.35	140.435	4642.48	1.73346	183.246
29	1584.9	4659.35	139.788	4661.44	1.71845	184.461
30	1258.9	4676.66	140.084	4678.76	1.71572	185.751
31	1000	4695.16	140.852	4697.27	1.71833	187.076
32	794.33	4714.47	141.962	4716.61	1.72477	188.491
33	630.96	4733.38	143.965	4735.57	1.7421	189.736
34	501.19	4754.78	146.988	4757.05	1.77066	190.986
35	398.11	4773.64	150.61	4776.02	1.80711	192.286
36	316.23	4794.19	154.395	4796.67	1.84455	193.546
37	251.19	4816.38	160.943	4819.07	1.91388	194.836
38	199.53	4836.71	168.566	4839.65	1.99603	196.076
39	158.49	4859.87	175.967	4863.06	2.07366	197.396
40	125.89	4882.05	186.501	4885.61	2.18772	198.796
41	100	4905.95	197.334	4909.92	2.30339	200.101
42	79.433	4932.03	211.854	4936.58	2.45961	201.456
43	63.096	4957.58	227.023	4962.78	2.62192	202.872
44	50.119	4985.12	246.937	4991.23	2.83582	204.332
45	39.811	5020.15	268.404	5027.32	3.06042	213.482
46	31.623	5050.95	290.137	5059.27	3.28758	215.092
47	25.119	5091.66	320.082	5101.71	3.59711	216.692
48	19.953	5130.21	351.695	5142.25	3.92171	218.607
49	15.849	5175.61	386.211	5190	4.26758	220.527
50	12.589	5222.21	423.05	5239.32	4.63141	222.582
51	10	5275.97	465.847	5296.5	5.04591	224.817
52	7.9433	5336.64	511.087	5361.05	5.4705	227.107
53	6.3096	5399.44	562.517	5428.67	5.94765	229.507
54	5.0119	5467.6	619.968	5502.64	6.4691	231.802
55	3.9811	5536.17	684.284	5578.3	7.04615	234.232
56	3.1623	5614.11	765.742	5666.09	7.76698	236.687
57	2.5119	5703.08	843.455	5765.11	8.41276	239.237
58	1.9953	5785	950.079	5862.5	9.32652	241.872
59	1.5849	5889.13	1078.78	5987.12	10.3805	244.677
60	1.2589	5952.13	1238.5	6079.62	11.7542	247.617
61	1	6073.31	1405.6	6233.84	13.031	252.697
62	0.79433	6190.5	1615.45	6397.81	14.6256	255.887
63	0.63096	6323.88	1860.23	6591.81	16.3917	259.378
64	0.50119	6433.15	2178.06	6791.86	18.7045	263.188
65	0.39811	6577.99	2561.93	7059.28	21.2794	267.333
66	0.31623	6742.84	3066.66	7407.45	24.4561	272.098
67	0.25119	6945.04	3590.04	7818.05	27.3354	277.593
68	0.19953	7178.99	4289.62	8362.94	30.8593	283.858
69	0.15849	7380.76	5128.07	8987.36	34.7911	291.013
70	0.12589	7621.25	6256.33	9860.27	39.3828	299.513
71	0.1	8045.9	7484.98	10989.2	42.9316	309.758

File: Z_p41_2.txt
Index	Frequency (Hz)	Z' (Ω)	-Z'' (Ω)	Z (Ω)	-Phase (°)	Time (s)
1	1000000	2427.51	1595.78	2905.05	33.3199	455.332
2	794330	2653.59	1471.51	3034.29	29.01	456.742
3	630960	2918.34	1380.71	3228.48	25.3195	458.137
4	501190	3167.68	1294.75	3422.07	22.2317	459.597
5	398110	3418.17	1168.86	3612.5	18.8784	464.542
6	316230	3614.4	1062.82	3767.42	16.386	465.807
7	251190	3721.98	912.254	3832.14	13.7717	469.752
8	199530	3875.79	821.899	3961.98	11.9728	471.057
9	158490	4000.7	729.985	4066.76	10.3407	472.407
10	125890	4099.72	642.967	4149.83	8.9132	473.667
11	100000	4178.9	562.627	4216.6	7.66792	475.057
12	79433	4243.16	490.901	4271.46	6.59935	476.382
13	63096	4294.51	427.805	4315.76	5.68885	477.757
14	50119	4340.03	373.441	4356.07	4.91794	479.137
15	39811	4374.98	327.129	4387.19	4.2762	480.387
16	31623	4404.45	286.059	4413.73	3.71602	481.757
17	25119	4430.11	255.509	4437.47	3.30091	483.072
18	19953	4455.06	229.759	4460.98	2.95228	484.353
19	15849	4478.25	208.631	4483.1	2.66734	485.623
20	12589	4500.1	191.566	4504.18	2.43756	486.908
21	10000	4517.65	178.185	4521.16	2.25868	488.253
22	7943.3	4537.2	167.262	4540.28	2.11123	489.593
23	6309.6	4556.73	159.026	4559.51	1.99876	490.868
24	5011.9	4574.21	152.528	4576.75	1.90984	492.133
25	3981.1	4592.38	147.784	4594.76	1.84315	493.438
26	3162.3	4608.52	144.303	4610.78	1.79347	494.743
27	2511.9	4626.89	141.785	4629.06	1.7552	496.043
28	1995.3	4646.38	140.56	4648.5	1.73276	497.348
29	1584.9	4663.4	139.886	4665.5	1.71816	498.633
30	1258.9	4682.06	139.699	4684.14	1.70903	499.883
31	1000	4701.17	141.401	4703.29	1.72281	501.173
32	794.33	4721.22	141.849	4723.35	1.72093	502.593
33	630.96	4739.19	144.198	4741.39	1.74278	503.858
34	501.19	4760.1	147.144	4762.37	1.77057	505.133
35	398.11	4779.07	150.271	4781.43	1.80099	506.368
36	316.23	4800.04	155.13	4802.55	1.85107	507.698
37	251.19	4819.41	161.588	4822.12	1.92032	509.033
38	199.53	4844.04	168.085	4846.95	1.98733	510.303
39	158.49	4864.65	176.44	4867.85	2.0772	511.598
40	125.89	4887.12	187.332	4890.71	2.19518	512.968
41	100	4913.15	199.179	4917.18	2.3215	514.348
42	79.433	4937.57	212.558	4942.14	2.46501	515.713
43	63.096	4964.66	228.501	4969.91	2.6352	517.133
44	50.119	4985.55	235.97	4991.13	2.70983	518.548
45	39.811	5021.36	267.368	5028.47	3.04791	527.643
46	31.623	5058.7	292.398	5067.15	3.30807	529.263
47	25.119	5094.16	319.162	5104.15	3.58504	530.903
48	19.953	5136.72	351.099	5148.7	3.91014	532.808
49	15.849	5183.22	387.175	5197.66	4.27193	534.748
50	12.589	5226.95	424.328	5244.14	4.64115	536.698
51	10	5284.84	465.367	5305.29	5.03231	538.929
52	7.9433	5342.69	512.507	5367.21	5.47943	541.229
53	6.3096	5407.39	560.135	5436.33	5.914	543.584
54	5.0119	5473.65	621.453	5508.81	6.47736	546.099
55	3.9811	5545.82	687.731	5588.3	7.06909	548.519
56	3.1623	5621.42	756.449	5672.09	7.664	551.049
57	2.5119	5702.71	853.237	5766.19	8.50944	553.614
58	1.9953	5796.1	962.42	5875.46	9.42773	556.159
59	1.5849	5866.31	1074	5963.81	10.3747	558.929
60	1.2589	5975.45	1253.65	6105.55	11.8488	561.809
61	1	6084.62	1405.53	6244.85	13.007	566.854
62	0.79433	6202.08	1612.27	6408.22	14.5719	569.989
63	0.63096	6328.11	1874.91	6600.02	16.5037	573.524
64	0.50119	6453.34	2173.3	6809.46	18.612	577.269
65	0.39811	6602.23	2556.65	7079.97	21.1684	581.459
66	0.31623	6738.49	3041.26	7393	24.2909	586.224
67	0.25119	6969.06	3600.29	7844.1	27.3214	591.549
68	0.19953	7195.65	4310.6	8388.01	30.924	597.725
69	0.15849	7413.21	5133.48	9017.11	34.7017	604.915
70	0.12589	7612.29	6229.69	9836.47	39.296	613.44
71	0.1	8054.05	7535.16	11029.3	43.0936	623.59

File: Z_p41_3.txt
Index	Frequency (Hz)	Z' (Ω)	-Z'' (Ω)	Z (Ω)	-Phase (°)	Time (s)
1	1000000	2427.79	1617.84	2917.46	33.6788	770.962
2	794330	2653.41	1473.37	3035.03	29.0423	773.042
3	630960	2914.21	1385.54	3226.82	25.4285	775.087
4	501190	3173.8	1286.79	3424.74	22.0697	777.332
5	398110	3418.38	1169.91	3613.03	18.8931	785.652
6	316230	3621.89	1064.93	3775.21	16.3848	787.607
7	251190	3729.63	916.438	3840.57	13.8051	794.257
8	199530	3884.54	826.187	3971.43	12.0071	796.257
9	158490	4010.15	733.889	4076.75	10.3708	798.267
10	125890	4109	644.88	4159.3	8.91943	800.192
11	100000	4188.51	563.821	4226.29	7.66658	802.317
12	79433	4253.78	493.5	4282.31	6.61755	804.232
13	63096	4304.07	429.406	4325.44	5.6974	806.262
14	50119	4347.36	374.544	4363.47	4.92412	808.422
15	39811	4386.54	327.918	4398.78	4.27523	810.517
16	31623	4413.02	286.678	4422.32	3.71682	812.622
17	25119	4441.83	256.476	4449.22	3.30466	814.577
18	19953	4464.6	230.364	4470.54	2.95372	816.552
19	15849	4487.94	209.035	4492.81	2.66674	818.497
20	12589	4507.75	192.409	4511.85	2.44414	820.423
21	10000	4525.69	177.714	4529.18	2.24872	822.548
22	7943.3	4547.6	167.744	4550.69	2.11246	824.488
23	6309.6	4565.59	158.873	4568.36	1.99296	826.498
24	5011.9	4582.65	152.807	4585.2	1.90981	828.443
25	3981.1	4603.5	148.613	4605.9	1.84902	830.393
26	3162.3	4619.62	144.6	4621.88	1.79284	832.293
27	2511.9	4637.96	143.049	4640.17	1.76662	834.393
28	1995.3	4656.51	140.938	4658.65	1.73363	836.373
29	1584.9	4673.21	140.283	4675.31	1.71942	838.263
30	1258.9	4692.59	140.779	4694.7	1.71837	840.338
31	1000	4709.84	141.334	4711.96	1.71883	842.263
32	794.33	4728.47	142.789	4730.62	1.72968	844.533
33	630.96	4751.14	144.447	4753.33	1.7414	846.553
34	501.19	4770.83	147.64	4773.12	1.77253	848.478
35	398.11	4788.47	151.263	4790.86	1.80931	850.543
36	316.23	4811.29	155.678	4813.81	1.85327	852.618
37	251.19	4830.6	161.44	4833.3	1.91413	854.668
38	199.53	4853.78	168.353	4856.7	1.98651	856.668
39	158.49	4876.29	177.464	4879.52	2.08425	858.643
40	125.89	4899.62	188.255	4903.23	2.20036	860.688
41	100	4922.46	199.705	4926.51	2.32323	862.793
42	79.433	4946.15	213.453	4950.76	2.47108	864.813
43	63.096	4974.07	229.848	4979.38	2.64572	866.953
44	50.119	5012.31	251.037	5018.59	2.86721	869.198
45	39.811	5036.05	269.665	5043.26	3.06509	878.989
46	31.623	5068.81	292.64	5077.25	3.30422	881.254
47	25.119	5105.45	320.231	5115.49	3.58908	883.454
48	19.953	5146.51	353.747	5158.65	3.93206	886.104
49	15.849	5192.68	387.928	5207.15	4.27245	888.704
50	12.589	5242.96	427.104	5260.32	4.65717	891.289
51	10	5298.31	469.079	5319.03	5.05942	894.194
52	7.9433	5355.67	514.488	5380.32	5.48723	897.124
53	6.3096	5421.92	567.056	5451.5	5.97062	900.089
54	5.0119	5486.14	624.969	5521.62	6.499	903.164
55	3.9811	5561.88	691.13	5604.66	7.08337	906.249
56	3.1623	5634.9	770.655	5687.36	7.78772	909.409
57	2.5119	5724.71	858.516	5788.73	8.5289	912.639
58	1.9953	5807.02	956.537	5885.27	9.35382	916.094
59	1.5849	5905.9	1062.03	6000.63	10.1942	919.524
60	1.2589	6001.69	1240.32	6128.51	11.6765	923.159
61	1	6102.19	1413.46	6263.76	13.0415	929.485
62	0.79433	6228.5	1619.71	6435.66	14.5768	933.34
63	0.63096	6351.16	1887.14	6625.6	16.5484	937.515
64	0.50119	6485.15	2185.23	6843.42	18.6217	942.085
65	0.39811	6610.35	2574.54	7094.01	21.2795	946.88
66	0.31623	6797.92	3038.89	7446.25	24.0862	952.3
67	0.25119	6954.85	3618.72	7839.97	27.4887	958.345
68	0.19953	7227.61	4352.53	8436.99	31.0567	965.29
69	0.15849	7442.29	5238.97	9101.35	35.1435	973.255
70	0.12589	7749.07	6287.82	9979.22	39.0569	982.471
71	0.1	8084.27	7481.33	11014.8	42.7817	993.426

File: Z_p42_1.txt
Index	Frequency (Hz)	Z' (Ω)	-Z'' (Ω)	Z (Ω)	-Phase (°)	Time (s)
1	1000000	2713.51	1863.66	3291.86	34.4815	35.5004
2	794330	2977.75	1700.26	3428.98	29.7258	36.8854
3	630960	3287.46	1597.48	3655.04	25.9165	38.2355
4	501190	3572.97	1504.2	3876.69	22.8308	39.6805
5	398110	3883.8	1378.24	4121.09	19.5382	43.7706
6	316230	4115.37	1267.01	4305.99	17.1122	45.0456
7	251190	4245.25	1095.77	4384.39	14.4731	49.0457
8	199530	4433.34	1001.08	4544.96	12.7244	50.3507
9	158490	4585.71	901.493	4673.48	11.1218	51.7807
10	125890	4710.52	805.136	4778.83	9.69944	53.0907
11	100000	4815.92	716.765	4868.96	8.46534	54.4608
12	79433	4903.54	635.74	4944.58	7.38714	55.7258
13	63096	4974.16	563.565	5005.99	6.46396	57.0808
14	50119	5041.45	500.808	5066.26	5.67304	58.4358
15	39811	5092.23	445.151	5111.65	4.99596	59.8009
16	31623	5135.27	397.162	5150.61	4.42245	61.0659
17	25119	5177.83	359.106	5190.27	3.96737	62.3509
18	19953	5215.42	325.487	5225.56	3.57112	63.636
19	15849	5250.85	299.302	5259.37	3.26237	64.986
20	12589	5283.88	276.047	5291.09	2.9906	66.311
21	10000	5312.15	257.656	5318.4	2.77685	67.596
22	7943.3	5340.23	242.659	5345.74	2.60172	68.861
23	6309.6	5368.52	231.334	5373.5	2.46739	70.2111
24	5011.9	5397.64	222.461	5402.22	2.36008	71.4711
25	3981.1	5422.93	215.291	5427.2	2.27345	72.7211
26	3162.3	5449.09	209.882	5453.13	2.20576	74.0161
27	2511.9	5475.1	206.6	5479	2.161	75.3862
28	1995.3	5500.33	205.171	5504.15	2.13623	76.6912
29	1584.9	5527.37	204.194	5531.14	2.11568	77.9162
30	1258.9	5554.38	205.418	5558.18	2.118	79.1812
31	1000	5582.44	206.79	5586.27	2.12143	80.5313
32	794.33	5610.5	209.086	5614.39	2.13425	81.9013
33	630.96	5636.24	212.403	5640.24	2.15818	83.1763
34	501.19	5665.98	217.522	5670.15	2.19856	84.4613
35	398.11	5695.07	224.009	5699.48	2.2525	85.7964
36	316.23	5726.03	232.814	5730.76	2.32831	87.0614
37	251.19	5755.78	242.858	5760.9	2.41609	88.4714
38	199.53	5787	255.059	5792.61	2.52365	89.7914
39	158.49	5819.36	268.893	5825.57	2.64557	91.1715
40	125.89	5852.59	286.188	5859.58	2.7995	92.5415
41	100	5894.38	306.589	5902.35	2.97748	93.8615
42	79.433	5930.77	329.246	5939.9	3.1775	95.2215
43	63.096	5972	356.147	5982.61	3.41286	96.6416
44	50.119	6018.36	379.85	6030.34	3.61144	98.0916
45	39.811	6066.68	418.497	6081.1	3.94618	107.222
46	31.623	6118.55	457.288	6135.61	4.27423	108.907
47	25.119	6177.65	500.163	6197.87	4.62876	110.582
48	19.953	6240.52	550.354	6264.74	5.0399	112.502
49	15.849	6308.33	604.144	6337.19	5.47049	114.432
50	12.589	6385.75	666.258	6420.42	5.95641	116.417
51	10	6467.68	734.28	6509.23	6.47709	118.737
52	7.9433	6557.43	812.076	6607.52	7.0596	120.997
53	6.3096	6651.3	899.43	6711.84	7.70117	123.347
54	5.0119	6755.98	1002.8	6830	8.44284	125.647
55	3.9811	6865.03	1115.53	6955.07	9.22957	128.122
56	3.1623	6982.4	1251.85	7093.73	10.1643	130.667
57	2.5119	7114.63	1408.61	7252.73	11.199	133.152
58	1.9953	7261.28	1596.83	7434.79	12.4025	135.812
59	1.5849	7413.11	1803.84	7629.42	13.676	138.562
60	1.2589	7618.99	2074.1	7896.26	15.2285	141.457
61	1	7805.28	2367.39	8156.41	16.8729	146.472
62	0.79433	8033.76	2722.49	8482.53	18.7206	149.563
63	0.63096	8292.32	3122.37	8860.69	20.6332	153.078
64	0.50119	8562.44	3625.2	9298.25	22.947	156.918
65	0.39811	8889.08	4208.88	9835.16	25.3371	161.123
66	0.31623	9264.64	4944.94	10501.7	28.0908	165.863
67	0.25119	9727.48	5719.34	11284.3	30.4537	171.253
68	0.19953	10269.8	6680.13	12251.3	33.0425	177.413
69	0.15849	10830.5	7826.41	13362.3	35.8529	184.638
70	0.12589	11571.8	9280.8	14833.7	38.7304	193.103
71	0.1	12465.9	10726.3	16445.4	40.7103	203.334

File: Z_p42_2.txt
Index	Frequency (Hz)	Z' (Ω)	-Z'' (Ω)	Z (Ω)	-Phase (°)	Time (s)
1	1000000	2710.99	1851.67	3283.01	34.334	342.771
2	794330	2970.47	1699.56	3422.31	29.7761	344.166
3	630960	3279.39	1604.49	3650.86	26.0709	345.521
4	501190	3579.29	1506.06	3883.23	22.82	347.001
5	398110	3881.33	1375.66	4117.9	19.5159	351.126
6	316230	4111.34	1265.17	4301.6	17.1045	352.491
7	251190	4246.96	1097.13	4386.38	14.4847	356.471
8	199530	4435.4	1001.8	4547.13	12.7275	357.801
9	158490	4590.31	902.489	4678.18	11.1229	359.231
10	125890	4714.14	805.575	4782.47	9.69731	360.491
11	100000	4817.81	716.797	4870.84	8.46243	361.881
12	79433	4905.98	636.6	4947.11	7.3934	363.131
13	63096	4977.75	564.215	5009.62	6.46673	364.576
14	50119	5041.18	501.533	5066.07	5.6815	365.991
15	39811	5096.53	446.246	5116.03	5.00399	367.421
16	31623	5141.25	396.248	5156.49	4.40721	368.696
17	25119	5179.78	358.914	5192.2	3.96377	369.961
18	19953	5217.4	326.826	5227.63	3.58441	371.281
19	15849	5252.74	299.837	5261.29	3.26701	372.636
20	12589	5284.77	275.769	5291.96	2.98709	373.907
21	10000	5313.31	257.822	5319.56	2.77803	375.177
22	7943.3	5345.7	243.183	5351.23	2.60467	376.497
23	6309.6	5370.5	231.925	5375.51	2.47278	377.842
24	5011.9	5397.14	222.144	5401.71	2.35694	379.132
25	3981.1	5427.08	215.349	5431.35	2.27233	380.472
26	3162.3	5452.04	211.036	5456.12	2.21669	381.822
27	2511.9	5479.43	206.671	5483.32	2.16004	383.117
28	1995.3	5503.95	205.169	5507.77	2.13481	384.432
29	1584.9	5530.79	204.481	5534.57	2.11734	385.692
30	1258.9	5558.51	205.226	5562.3	2.11446	386.932
31	1000	5586.7	206.281	5590.51	2.1146	388.402
32	794.33	5611.63	209.083	5615.52	2.13379	389.807
33	630.96	5639.61	213.118	5643.64	2.16415	391.112
34	501.19	5670.09	217.596	5674.27	2.19771	392.492
35	398.11	5698.79	224.61	5703.21	2.25707	393.707
36	316.23	5728.34	232.652	5733.07	2.32575	395.062
37	251.19	5758.35	242.51	5763.46	2.41156	396.347
38	199.53	5791.52	255.303	5797.14	2.52409	397.622
39	158.49	5825.5	269.572	5831.73	2.64944	398.987
40	125.89	5860.57	286.402	5867.56	2.79778	400.402
41	100	5896.36	307.115	5904.35	2.98158	401.777
42	79.433	5931.71	329.499	5940.86	3.17944	403.142
43	63.096	5978.12	356.532	5988.74	3.41305	404.552
44	50.119	6035.93	382.842	6048.06	3.62925	405.872
45	39.811	6070.82	420.413	6085.36	3.96149	415.017
46	31.623	6119.9	459.027	6137.09	4.28948	416.647
47	25.119	6182.27	501.234	6202.56	4.63518	418.277
48	19.953	6245.57	554.59	6270.14	5.07441	420.197
49	15.849	6314.51	606.845	6343.61	5.48945	422.182
50	12.589	6391.81	670.05	6426.84	5.98442	424.287
51	10	6471.43	740.456	6513.65	6.52735	426.562
52	7.9433	6561.27	817.418	6611.99	7.10145	428.858
53	6.3096	6660.23	906.227	6721.6	7.7484	431.248
54	5.0119	6757.15	1006.78	6831.75	8.47445	433.638
55	3.9811	6872.8	1120.07	6963.47	9.25616	435.988
56	3.1623	7006.95	1255.73	7118.58	10.1603	438.518
57	2.5119	7131.84	1413.49	7270.56	11.2105	441.063
58	1.9953	7274.14	1579.5	7443.65	12.251	443.768
59	1.5849	7457.13	1816.93	7675.29	13.6933	446.563
60	1.2589	7641.37	2073.64	7917.73	15.1827	449.498
61	1	7819.9	2376.68	8173.09	16.9054	454.528
62	0.79433	8051.01	2729.47	8501.11	18.7278	457.658
63	0.63096	8314.1	3139.98	8887.28	20.69	461.183
64	0.50119	8578.5	3636.76	9317.55	22.974	464.918
65	0.39811	8906.94	4225.04	9858.23	25.3775	469.093
66	0.31623	9287.8	4964.19	10531.2	28.1239	473.823
67	0.25119	9758.63	5738.31	11320.7	30.4566	479.268
68	0.19953	10299.3	6708.63	12291.5	33.0788	485.504
69	0.15849	10863.4	7834.95	13394	35.8	492.724
70	0.12589	11565.1	9296.83	14838.6	38.7946	501.229
71	0.1	12530.1	10775.1	16525.9	40.6933	511.419

File: Z_p42_3.txt
Index	Frequency (Hz)	Z' (Ω)	-Z'' (Ω)	Z (Ω)	-Phase (°)	Time (s)
1	1000000	2683.24	1865	3267.72	34.8014	658.654
2	794330	2950.64	1706.59	3408.62	30.0442	660.719
3	630960	3263.97	1612.08	3640.37	26.2849	662.809
4	501190	3575.32	1516.51	3883.65	22.9847	664.969
5	398110	3867.26	1390.96	4109.8	19.7825	673.504
6	316230	4113.3	1279.81	4307.8	17.283	675.489
7	251190	4241.66	1107.67	4383.9	14.6354	682.279
8	199530	4431.48	1010.98	4545.34	12.8513	684.224
9	158490	4586.26	910.681	4675.8	11.231	686.419
10	125890	4711.78	813.991	4781.57	9.80147	688.369
11	100000	4815.43	723.218	4869.44	8.54128	690.484
12	79433	4904.35	643.493	4946.39	7.475	692.539
13	63096	4978.08	569.365	5010.53	6.52482	694.604
14	50119	5041.57	505.503	5066.85	5.72575	696.764
15	39811	5095.47	450.138	5115.31	5.04845	698.864
16	31623	5140.54	399.468	5156.04	4.44349	700.804
17	25119	5181.08	360.686	5193.61	3.98229	702.769
18	19953	5218.14	328.487	5228.47	3.60207	704.714
19	15849	5254.01	300.893	5262.62	3.27771	706.784
20	12589	5286.18	278.128	5293.49	3.01179	708.785
21	10000	5317.58	259.665	5323.92	2.79561	710.715
22	7943.3	5346.76	244.231	5352.33	2.61536	712.655
23	6309.6	5373.42	232.167	5378.44	2.47401	714.65
24	5011.9	5401.48	222.169	5406.05	2.35532	716.635
25	3981.1	5426.56	215.752	5430.84	2.2768	718.595
26	3162.3	5453.96	210.266	5458.01	2.20783	720.645
27	2511.9	5478.75	207.631	5482.69	2.17033	722.585
28	1995.3	5505.76	205.448	5509.59	2.137	724.59
29	1584.9	5532.74	205.484	5536.56	2.12697	726.53
30	1258.9	5558.41	205.87	5562.22	2.12113	728.445
31	1000	5586.01	206.756	5589.83	2.11973	730.545
32	794.33	5613.05	209.688	5616.96	2.13942	732.725
33	630.96	5643.29	213.131	5647.32	2.16287	734.645
34	501.19	5670.76	218.569	5674.97	2.20727	736.63
35	398.11	5700.48	224.703	5704.91	2.25733	738.58
36	316.23	5729.78	233.493	5734.53	2.33356	740.655
37	251.19	5760.73	242.964	5765.85	2.41507	742.76
38	199.53	5791.74	256.03	5797.39	2.53117	744.68
39	158.49	5826.02	270.04	5832.28	2.6538	746.725
40	125.89	5861.15	287.356	5868.19	2.80681	748.93
41	100	5899.13	306.886	5907.11	2.97797	750.91
42	79.433	5937.21	330.477	5946.4	3.18591	752.965
43	63.096	5979.16	356.265	5989.76	3.40991	755.175
44	50.119	6015.54	401.047	6028.89	3.81418	757.265
45	39.811	6071.43	422.262	6086.09	3.97846	767.091
46	31.623	6126.56	459.61	6143.77	4.29025	769.356
47	25.119	6185.07	503.047	6205.49	4.64978	771.971
48	19.953	6247.62	556.51	6272.35	5.09022	774.636
49	15.849	6317.47	607.761	6346.64	5.49513	777.326
50	12.589	6393.31	673.769	6428.72	6.016	780.046
51	10	6478.01	738.978	6520.02	6.50788	783.111
52	7.9433	6568.07	818.478	6618.87	7.10328	786.136
53	6.3096	6666.67	907.663	6728.17	7.75312	789.321
54	5.0119	6766.34	1009.78	6841.27	8.48797	792.436
55	3.9811	6879.83	1127.58	6971.62	9.30783	795.556
56	3.1623	7008.39	1261.19	7120.97	10.2014	798.991
57	2.5119	7143.46	1424.14	7284.04	11.2748	802.391
58	1.9953	7280.64	1587.77	7451.76	12.3025	805.886
59	1.5849	7437.54	1848.52	7663.81	13.9575	809.491
60	1.2589	7666.52	2094.62	7947.51	15.2812	813.156
61	1	7830.27	2381.36	8184.38	16.9157	819.637
62	0.79433	8063.6	2740.78	8516.66	18.7727	823.612
63	0.63096	8329.6	3156.82	8907.74	20.7561	827.922
64	0.50119	8612.02	3639.09	9349.32	22.9069	832.602
65	0.39811	8921.51	4233.3	9874.93	25.3846	837.497
66	0.31623	9336.09	4974.76	10578.8	28.0511	843.227
67	0.25119	9798.25	5774.82	11373.4	30.5139	849.332
68	0.19953	10250.4	6770.34	12284.5	33.4445	856.372
69	0.15849	10873.6	7865.75	13420.3	35.8812	864.397
70	0.12589	11571.7	9225.21	14798.9	38.5626	873.778
71	0.1	12419.2	10918.8	16536.5	41.3216	884.773

File: Z_p43_1.txt
Index	Frequency (Hz)	Z' (Ω)	-Z'' (Ω)	Z (Ω)	-Phase (°)	Time (s)
1	1000000	2750.96	2005.98	3404.66	36.0992	141.866
2	794330	3029.5	1855.38	3552.51	31.4849	143.376
3	630960	3378.68	1766.73	3812.72	27.6054	144.846
4	501190	3708.11	1689.71	4074.94	24.4978	146.306
5	398110	4051.74	1565.49	4343.65	21.1253	151.292
6	316230	4330.18	1463	4570.65	18.6681	152.562
7	251190	4497.18	1291.02	4678.82	16.0173	156.592
8	199530	4718.96	1191.5	4867.06	14.1705	157.872
9	158490	4906.37	1088.29	5025.62	12.5064	159.232
10	125890	5065.08	982.643	5159.52	10.9792	160.587
11	100000	5194.74	882.87	5269.23	9.64552	162.002
12	79433	5311.59	791.827	5370.29	8.47894	163.297
13	63096	5406.39	709.9	5452.8	7.48058	164.737
14	50119	5488.91	635.428	5525.57	6.6035	166.212
15	39811	5565.61	569.067	5594.63	5.83804	167.672
16	31623	5625.34	510.211	5648.43	5.18247	169.002
17	25119	5678.12	461.763	5696.87	4.64924	170.282
18	19953	5729.3	420.807	5744.74	4.20073	171.597
19	15849	5778.08	385.076	5790.9	3.8128	172.927
20	12589	5818.68	353.513	5829.4	3.47673	174.197
21	10000	5854.28	327.132	5863.41	3.19831	175.477
22	7943.3	5897.06	305.844	5904.99	2.96892	176.847
23	6309.6	5934.55	287.241	5941.5	2.77104	178.247
24	5011.9	5964.78	272.935	5971.02	2.6199	179.517
25	3981.1	5997.88	260.41	6003.53	2.48605	180.892
26	3162.3	6028.59	250.867	6033.81	2.38286	182.277
27	2511.9	6060.01	243.769	6064.91	2.30353	183.532
28	1995.3	6088.65	238.146	6093.3	2.23988	184.792
29	1584.9	6119	234.243	6123.48	2.19229	186.092
30	1258.9	6151.87	231.434	6156.22	2.15446	187.427
31	1000	6181.66	230.356	6185.95	2.13411	188.692
32	794.33	6207.36	230.288	6211.63	2.12465	190.067
33	630.96	6239.15	231.498	6243.44	2.12494	191.357
34	501.19	6267.67	232.973	6272	2.12874	192.677
35	398.11	6299.9	238.053	6304.4	2.164	193.917
36	316.23	6332.16	244.388	6336.88	2.21022	195.217
37	251.19	6365.12	252.724	6370.14	2.27371	196.612
38	199.53	6400.53	262.85	6405.92	2.35164	197.957
39	158.49	6434.3	274.492	6440.16	2.4428	199.262
40	125.89	6467.7	291.621	6474.27	2.58165	200.602
41	100	6501.91	310.743	6509.33	2.73623	201.953
42	79.433	6540.31	333.121	6548.78	2.91576	203.403
43	63.096	6580.68	358.141	6590.42	3.11514	204.963
44	50.119	6648.37	394.101	6660.04	3.3924	206.403
45	39.811	6670.83	425.596	6684.39	3.6505	215.588
46	31.623	6724.78	466.363	6740.93	3.96711	217.238
47	25.119	6779.85	513.923	6799.3	4.33482	218.803
48	19.953	6844.89	570.582	6868.63	4.76509	220.703
49	15.849	6912.84	629.683	6941.46	5.20465	222.703
50	12.589	6985.72	699.473	7020.66	5.71791	224.688
51	10	7068.19	776.864	7110.75	6.2722	227.048
52	7.9433	7160.93	871.03	7213.71	6.93519	229.298
53	6.3096	7247.63	970.958	7312.38	7.63043	231.678
54	5.0119	7352.97	1093.32	7433.81	8.4574	234.088
55	3.9811	7465.4	1230.25	7566.09	9.35789	236.558
56	3.1623	7591.82	1394.88	7718.9	10.4111	239.078
57	2.5119	7713.02	1594.04	7876.01	11.6769	241.738
58	1.9953	7896.33	1806.56	8100.35	12.8866	244.483
59	1.5849	8016.31	2094.58	8285.44	14.6434	247.233
60	1.2589	8181.93	2418.95	8532.02	16.4701	250.093
61	1	8396.42	2806.42	8853.01	18.4817	255.088
62	0.79433	8627.53	3269.98	9226.43	20.7576	258.279
63	0.63096	8867.51	3851.94	9668	23.4795	261.749
64	0.50119	9131.84	4520.22	10189.4	26.3352	265.494
65	0.39811	9456.6	5378.99	10879.4	29.6316	269.749
66	0.31623	9807.07	6389.13	11704.7	33.0835	274.574
67	0.25119	10284.8	7686.75	12839.9	36.7741	279.989
68	0.19953	10804.9	9210.96	14198.1	40.447	286.264
69	0.15849	11470.3	11004.7	15895.7	43.8132	293.599
70	0.12589	12226	13058.1	17888.3	46.885	302.054
71	0.1	13052	15787.9	20484.5	50.4192	312.505