Folder: Streamlit_cement_impedance/data/20200619 (part 3)

File: Z_p22_2.txt
Index	Frequency (Hz)	Z' (Ω)	-Z'' (Ω)	Z (Ω)	-Phase (°)	Time (s)
1	1000000	4069.07	6777.96	7905.57	59.022	415.545
2	794330	5696.5	6645.99	8753.25	49.399	418.66
3	630960	7387.42	6920.91	10122.9	43.1326	421.77
4	501190	8960.43	7147.89	11462.2	38.58	424.756
5	398110	11098	7782.01	13554.5	35.0384	433.241
6	316230	12629.6	7792.52	14840.1	31.6749	434.746
7	251190	13939.6	7275.48	15724	27.5614	439.081
8	199530	15316.6	6963.02	16825.1	24.4468	440.926
9	158490	16541.2	6561.78	17795.2	21.6378	443.106
10	125890	17634.4	6085.98	18655	19.0406	444.996
11	100000	18564.1	5550.67	19376.2	16.6467	446.541
12	79433	19385.2	5006.04	20021.2	14.4797	448.021
13	63096	20085.9	4476.18	20578.6	12.5632	449.476
14	50119	20673.8	3953.32	21048.4	10.8256	450.966
15	39811	21119.2	3452.99	21399.7	9.2857	452.356
16	31623	21496.9	3006.48	21706.1	7.96157	453.806
17	25119	21809.4	2653.68	21970.2	6.93742	455.186
18	19953	22088.5	2328.15	22210.8	6.01682	456.501
19	15849	22334.1	2054.88	22428.4	5.25678	457.891
20	12589	22528.5	1818.28	22601.7	4.61435	459.316
21	10000	22722.8	1584.53	22778	3.98896	461.861
22	7943.3	22889.6	1413.62	22933.2	3.53399	463.386
23	6309.6	23027.5	1267.36	23062.3	3.1502	464.851
24	5011.9	23167	1142.55	23195.2	2.82342	466.271
25	3981.1	23292.4	1035.84	23315.4	2.54633	467.596
26	3162.3	23403.4	945.059	23422.4	2.31242	468.976
27	2511.9	23508.5	866.673	23524.5	2.11133	470.381
28	1995.3	23598.2	800.216	23611.7	1.94216	471.816
29	1584.9	23680.7	741.755	23692.3	1.7941	473.386
30	1258.9	23783.9	688.558	23793.8	1.65829	474.951
31	1000	23861.4	646.309	23870.1	1.55153	476.436
32	794.33	23940.8	606.371	23948.5	1.45087	477.976
33	630.96	24029.7	568.7	24036.4	1.35574	479.352
34	501.19	24090.9	536.496	24096.9	1.27575	480.727
35	398.11	24166.9	507.15	24172.2	1.20219	482.097
36	316.23	24227	478.912	24231.7	1.13246	483.447
37	251.19	24307.7	455.764	24311.9	1.07416	484.847
38	199.53	24359.7	432.119	24363.5	1.01627	486.197
39	158.49	24415.1	413.551	24418.6	0.970402	487.727
40	125.89	24472.1	395.411	24475.3	0.925682	489.382
41	100	24514	379.265	24517	0.886372	490.987
42	79.433	24561.5	363.92	24564.2	0.848871	492.547
43	63.096	24605.8	353.708	24608.3	0.82357	494.087
44	50.119	24747.6	384.067	24750.6	0.889123	520.737
45	39.811	24646.2	355.854	24648.7	0.827208	529.962
46	31.623	24684.9	355.878	24687.5	0.825966	531.717
47	25.119	24744.4	334.748	24746.6	0.775065	533.428
48	19.953	24776.3	356.989	24778.9	0.825489	535.448
49	15.849	24816.5	373.445	24819.3	0.862137	537.573
50	12.589	24841.3	426.729	24845	0.98414	539.678
51	10	24918	432.857	24921.7	0.995201	542.003
52	7.9433	24951.7	445.009	24955.7	1.02175	544.503
53	6.3096	24996.5	505.141	25001.6	1.1577	547.153
54	5.0119	25040	579.961	25046.7	1.32681	549.728
55	3.9811	25071.4	589.025	25078.3	1.34585	552.508
56	3.1623	25168.7	753.518	25180	1.71485	555.218
57	2.5119	25194.8	631.671	25202.7	1.43619	557.843
58	1.9953	25373	854.196	25387.4	1.92816	561.248
59	1.5849	25489.3	958.273	25507.3	2.15303	564.078
60	1.2589	25573.7	1535.25	25619.8	3.43547	567.003
61	1	25593.9	1295.29	25626.6	2.89723	572.468
62	0.79433	25699.3	1499.26	25743	3.33876	575.838
63	0.63096	25829	1732.22	25887.1	3.83678	581.228
64	0.50119	25963.3	2007.28	26040.8	4.42088	585.388
65	0.39811	26120.3	2366.1	26227.3	5.176	589.939
66	0.31623	26280.3	2788.61	26427.9	6.057	595.344
67	0.25119	26493.7	3246.6	26691.9	6.98631	602.319
68	0.19953	26770.1	3846.73	27045.1	8.17715	608.834
69	0.15849	26985.9	4522.12	27362.2	9.51285	616.319
70	0.12589	27152.6	5401.81	27684.7	11.2517	625.074
71	0.1	27521.2	6598.21	28301.1	13.4822	635.669

File: Z_p22_3.txt
Index	Frequency (Hz)	Z' (Ω)	-Z'' (Ω)	Z (Ω)	-Phase (°)	Time (s)
1	1000000	4135.03	6777.36	7939.21	58.6116	768.421
2	794330	5749.19	6657.4	8796.26	49.1868	773.417
3	630960	7315.88	6936.1	10081.2	43.4736	777.008
4	501190	9011.62	7213.66	11543.2	38.6767	779.434
5	398110	11103.4	7796.87	13567.5	35.0768	795.419
6	316230	12652	7752.91	14838.5	31.4991	803.81
7	251190	13915.2	7255.19	15693	27.5369	830.65
8	199530	15288.1	6984.28	16808	24.553	836.966
9	158490	16528.3	6561.13	17782.9	21.6513	843.212
10	125890	17618.8	6076.75	18637.3	19.0294	848.088
11	100000	18553.6	5539.1	19362.8	16.6228	850.789
12	79433	19367.8	4997.96	20002.3	14.4698	855.515
13	63096	20060	4459.77	20549.7	12.5342	859.421
14	50119	20636.8	3939.16	21009.3	10.8067	866.172
15	39811	21111.6	3456.39	21392.7	9.29795	870.029
16	31623	21495.8	2998.9	21704	7.9421	872.67
17	25119	21788.5	2652.11	21949.4	6.93993	875.721
18	19953	22063.4	2327.37	22185.8	6.02162	878.767
19	15849	22314.5	2041.84	22407.7	5.22816	881.398
20	12589	22503	1783.48	22573.5	4.53152	884.169
21	10000	22690.5	1581.13	22745.6	3.98607	892.701
22	7943.3	22867.4	1410.64	22910.9	3.52998	897.492
23	6309.6	22996.2	1264.41	23030.9	3.14715	900.968
24	5011.9	23132.1	1139.89	23160.2	2.82111	903.239
25	3981.1	23255.6	1033.5	23278.6	2.54459	905.47
26	3162.3	23368.5	944.531	23387.6	2.31457	907.756
27	2511.9	23472.4	864.67	23488.3	2.10969	910.787
28	1995.3	23574.3	798.54	23587.8	1.94006	913.248
29	1584.9	23664.6	740.041	23676.2	1.79118	919.029
30	1258.9	23753	688.047	23762.9	1.65921	922.756
31	1000	23833	644.062	23841.7	1.54798	925.417
32	794.33	23911.3	605.599	23918.9	1.45081	929.338
33	630.96	23993.3	568.879	24000.1	1.35822	932.494
34	501.19	24052	536.423	24058	1.27763	940.545
35	398.11	24143.5	505.406	24148.7	1.19922	944.031
36	316.23	24196.2	478.928	24200.9	1.13394	946.722
37	251.19	24257.3	454.608	24261.6	1.07366	950.098
38	199.53	24327.2	431.966	24331.1	1.01726	954.004
39	158.49	24386.4	413.169	24389.9	0.970646	960.185
40	125.89	24428.8	394.795	24432	0.925879	963.196
41	100	24474	378.054	24476.9	0.884988	965.847
42	79.433	24525.3	364.503	24528	0.851485	968.218
43	63.096	24567.1	353.327	24569.7	0.823977	971.114
44	50.119	24669.2	355.414	24671.7	0.825416	1016.32
45	39.811	24627.7	343.085	24630.1	0.798128	1034.02
46	31.623	24652.1	354.883	24654.6	0.824754	1041.29
47	25.119	24679.3	329.484	24681.5	0.76489	1046.58
48	19.953	24756.9	342.941	24759.3	0.793628	1051.52
49	15.849	24758	364.023	24760.6	0.842374	1058.27
50	12.589	24802.7	378.016	24805.5	0.873173	1062.04
51	10	24841.6	445.234	24845.5	1.0268	1065.8
52	7.9433	24888.2	419.046	24891.7	0.964607	1070.51
53	6.3096	24948.5	476.681	24953	1.09459	1074.52
54	5.0119	25009.6	515.834	25015	1.18158	1077.92
55	3.9811	25056.3	615.299	25063.8	1.40671	1081.85
56	3.1623	25087.9	706.11	25097.8	1.61219	1095.13
57	2.5119	25248.7	844.213	25262.8	1.91502	1107.48
58	1.9953	25368.2	1018.74	25388.6	2.29966	1119.42
59	1.5849	25252.9	800.719	25265.6	1.81612	1124.85
60	1.2589	25314.7	949.669	25332.5	2.14841	1129.1
61	1	25516.3	1296.65	25549.3	2.90906	1136.29
62	0.79433	25639.1	1504.67	25683.2	3.35864	1143.07
63	0.63096	25782.8	1737.18	25841.3	3.85461	1148.07
64	0.50119	25903.4	2026.25	25982.5	4.47277	1154.46
65	0.39811	26057.2	2352.47	26163.2	5.15873	1159.85
66	0.31623	26255.9	2788.23	26403.6	6.06176	1165.59
67	0.25119	26459.5	3300.04	26664.5	7.10925	1172.03
68	0.19953	26696.2	3813.83	26967.3	8.13027	1179.36
69	0.15849	26958.1	4555.38	27340.3	9.59123	1187.46
70	0.12589	27236.5	5432.3	27773	11.2796	1197.1
71	0.1	27478.1	6405.95	28214.9	13.123	1208.27

File: Z_p23_1.txt
Index	Frequency (Hz)	Z' (Ω)	-Z'' (Ω)	Z (Ω)	-Phase (°)	Time (s)
1	1000000	4042.92	7968.45	8935.4	63.0983	142.483
2	794330	6052.11	8247.24	10229.6	53.7275	143.893
3	630960	7974.37	8792.91	11870.4	47.7948	145.388
4	501190	9980	9474.09	13760.8	43.5103	146.903
5	398110	12671.4	10852.8	16683.8	40.5795	152.169
6	316230	14726.6	11262.6	18539.7	37.408	153.584
7	251190	16577.2	11155.9	19981.5	33.9392	158.884
8	199530	18633.3	11314.6	21799.5	31.2672	160.244
9	158490	20642.3	11319.3	23542.1	28.7384	161.674
10	125890	22545.5	11186.9	25168.3	26.3902	163.129
11	100000	24466.4	10925	26794.8	24.0621	164.619
12	79433	26288	10583.4	28338.5	21.9294	166.039
13	63096	27985	10175.6	29777.5	19.9818	167.564
14	50119	29585.3	9649.94	31119.4	18.0649	168.914
15	39811	31149.5	9071.51	32443.5	16.2369	170.469
16	31623	32517.8	8296.58	33559.5	14.3131	171.869
17	25119	33659	7650.92	34517.6	12.8061	173.229
18	19953	34805.7	7037.34	35510	11.4305	174.649
19	15849	35723.6	6379.78	36288.8	10.1255	175.934
20	12589	36529.8	5740.61	36978.1	8.93093	177.254
21	10000	37299.2	5153.54	37653.5	7.86662	179.524
22	7943.3	37935.7	4624.86	38216.6	6.9508	180.894
23	6309.6	38502.2	4138.77	38724	6.13542	182.279
24	5011.9	38970.1	3704.23	39145.8	5.42983	183.699
25	3981.1	39389	3320.13	39528.6	4.81812	185.159
26	3162.3	39764.5	2982.08	39876.2	4.28879	186.494
27	2511.9	40077.1	2692.64	40167.5	3.84373	187.829
28	1995.3	40363.8	2421.91	40436.4	3.43374	189.299
29	1584.9	40636.4	2203.89	40696.1	3.10436	190.579
30	1258.9	40883.2	2018.02	40932.9	2.82586	191.964
31	1000	41115	1850.52	41156.6	2.57706	193.404
32	794.33	41327.6	1707.92	41362.9	2.36648	194.789
33	630.96	41519.4	1591.55	41549.9	2.19523	196.134
34	501.19	41692.4	1491.78	41719	2.04921	197.559
35	398.11	41873.4	1411.87	41897.2	1.93114	198.909
36	316.23	42038.3	1348.53	42059.9	1.83733	200.289
37	251.19	42198.2	1300.47	42218.3	1.76518	201.729
38	199.53	42354.9	1265.14	42373.7	1.71091	203.055
39	158.49	42485.6	1245.81	42503.9	1.67961	204.5
40	125.89	42625.2	1241.73	42643.3	1.66864	205.915
41	100	42766.4	1249.36	42784.6	1.67334	207.37
42	79.433	42928	1272.21	42946.9	1.69751	208.81
43	63.096	43080.2	1320.79	43100.4	1.75608	210.38
44	50.119	43230.6	1375.14	43252.5	1.82193	212.205
45	39.811	43381.4	1449.56	43405.6	1.91379	221.435
46	31.623	43554.1	1548.57	43581.6	2.03629	223.13
47	25.119	43731.8	1663.41	43763.4	2.1783	224.84
48	19.953	43928.8	1823.04	43966.6	2.3764	226.74
49	15.849	44145.3	2003	44190.7	2.5979	228.65
50	12.589	44388.2	2200.23	44442.7	2.83771	230.7
51	10	44655.6	2434.49	44721.9	3.1205	232.985
52	7.9433	44944.6	2706.78	45026	3.44646	235.255
53	6.3096	45259.6	3005.28	45359.3	3.79892	237.77
54	5.0119	45602	3343.02	45724.3	4.19277	240.19
55	3.9811	46004.5	3739.71	46156.3	4.64736	242.705
56	3.1623	46405.2	4148.24	46590.2	5.10819	245.215
57	2.5119	46857.4	4668.1	47089.3	5.68924	247.97
58	1.9953	47304.3	5269.54	47596.9	6.35634	250.775
59	1.5849	47862.4	5960.57	48232.1	7.09881	253.595
60	1.2589	48442.2	6763.43	48912.1	7.94817	256.476
61	1	49004.4	7819.4	49624.3	9.06598	261.621
62	0.79433	49743.8	8987.78	50549.3	10.2418	264.911
63	0.63096	50451.4	10471.8	51526.7	11.7259	268.496
64	0.50119	51385.9	12211.9	52817.1	13.3684	272.371
65	0.39811	52309.1	14432.6	54263.6	15.4247	276.681
66	0.31623	53610.2	16929.4	56219.8	17.5255	281.481
67	0.25119	54818	20033.5	58363.9	20.0751	287.006
68	0.19953	56523.2	23434.1	61188.4	22.5185	293.291
69	0.15849	58493.9	27816.5	64771.1	25.4332	300.596
70	0.12589	61279.2	32950.4	69576.3	28.2673	309.221
71	0.1	63954.4	38071.1	74428.4	30.7647	319.537

File: Z_p23_2.txt
Index	Frequency (Hz)	Z' (Ω)	-Z'' (Ω)	Z (Ω)	-Phase (°)	Time (s)
1	1000000	3961.08	8022.55	8947.15	63.7224	475.528
2	794330	5981.15	8154.57	10112.9	53.741	477.083
3	630960	7974.37	8700.2	11801.9	47.4925	478.718
4	501190	10070.5	9446.15	13807.4	43.1678	480.353
5	398110	12713.5	10825.2	16697.8	40.4135	485.984
6	316230	14745.1	11207.3	18520.9	37.2374	487.314
7	251190	16589.1	11162.8	19995.2	33.9365	493.069
8	199530	18656.2	11291.8	21807.3	31.1847	494.719
9	158490	20582.2	11322.7	23491	28.8161	496.364
10	125890	22590.6	11183.4	25207.2	26.3376	497.904
11	100000	24455.3	10940.4	26790.9	24.1019	499.459
12	79433	26209.3	10584.7	28266	21.9914	501.019
13	63096	27990.3	10162.3	29777.9	19.9542	502.534
14	50119	29609.5	9650.43	31142.4	18.052	504.144
15	39811	31131.8	9054.98	32421.9	16.2176	505.774
16	31623	32500.5	8246.13	33530.3	14.2368	507.349
17	25119	33665.6	7693.59	34533.6	12.8727	508.864
18	19953	34766.7	7071.22	35478.5	11.4966	510.299
19	15849	35723.9	6345.82	36283.2	10.0727	511.864
20	12589	36548.1	5789.89	37003.9	9.0019	513.874
21	10000	37322	5173.18	37678.8	7.89146	516.419
22	7943.3	37956.3	4639.04	38238.8	6.96815	517.964
23	6309.6	38511.6	4154.98	38735.1	6.15776	519.474
24	5011.9	39020.2	3721.6	39197.2	5.44818	521.059
25	3981.1	39420.5	3330.45	39561	4.82917	522.529
26	3162.3	39782.4	2993.69	39894.9	4.30349	524.164
27	2511.9	40127.9	2703.43	40218.9	3.85422	525.749
28	1995.3	40395.4	2442.07	40469.1	3.45956	527.344
29	1584.9	40668	2213.22	40728.2	3.11506	528.674
30	1258.9	40905.4	2021.69	40955.3	2.82946	530.214
31	1000	41141.9	1858.31	41183.9	2.58619	531.769
32	794.33	41332.8	1716.3	41368.4	2.37779	533.364
33	630.96	41551.1	1600.91	41581.9	2.20644	534.949
34	501.19	41714.5	1501.78	41741.5	2.06183	536.605
35	398.11	41907.4	1422.28	41931.6	1.94379	538
36	316.23	42075.8	1360.64	42097.8	1.85218	539.39
37	251.19	42235.9	1310.97	42256.3	1.77785	540.82
38	199.53	42397.2	1279.51	42416.5	1.72861	542.255
39	158.49	42526.7	1267.43	42545.6	1.70709	543.66
40	125.89	42672.3	1264.29	42691	1.69706	545.26
41	100	42832.4	1275.73	42851.4	1.70601	547.03
42	79.433	42956.8	1307.66	42976.7	1.74362	548.735
43	63.096	43089.8	1359.83	43111.3	1.80754	550.6
44	50.119	43211.2	1403.48	43233.9	1.86029	552.12
45	39.811	43437.1	1501.66	43463	1.97998	561.585
46	31.623	43618.1	1608.16	43647.7	2.11149	563.69
47	25.119	43815.7	1743.19	43850.4	2.27829	565.755
48	19.953	44007.4	1920.61	44049.3	2.49897	567.655
49	15.849	44215.7	2109.7	44266.1	2.73172	569.765
50	12.589	44484.6	2330.83	44545.6	2.99934	572.09
51	10	44753.6	2579.91	44827.9	3.29927	574.82
52	7.9433	45069.8	2863.88	45160.7	3.63587	577.26
53	6.3096	45422.3	3194.4	45534.5	4.0228	579.655
54	5.0119	45784.6	3557.57	45922.6	4.44309	582.335
55	3.9811	46198.7	3971.74	46369.1	4.91369	587.47
56	3.1623	46665	4433.62	46875.2	5.42735	592.181
57	2.5119	47165.5	4975	47427.2	6.02126	596.041
58	1.9953	47636.5	5581.23	47962.3	6.68248	599.516
59	1.5849	48223.1	6327.48	48636.4	7.47524	603.371
60	1.2589	48809.5	7167.41	49333	8.35386	607.436
61	1	49490	8215.81	50167.3	9.42569	614.041
62	0.79433	50282.3	9415.72	51156.3	10.6062	617.491
63	0.63096	51034	10839.5	52172.5	11.9913	621.336
64	0.50119	51981.4	12719.6	53515	13.7499	625.611
65	0.39811	52969.4	14922.1	55031.2	15.7331	631.101
66	0.31623	54204.5	17601.5	56990.7	17.9898	637.446
67	0.25119	55809.8	20842.4	59574.7	20.4783	643.677
68	0.19953	57364	24429.6	62349.3	23.0677	650.252
69	0.15849	59512.7	28891.9	66155.1	25.8954	657.602
70	0.12589	62502.9	33852.3	71081.6	28.4405	666.252
71	0.1	64786.4	39345.5	75798.1	31.2707	676.712

File: Z_p23_3.txt
Index	Frequency (Hz)	Z' (Ω)	-Z'' (Ω)	Z (Ω)	-Phase (°)	Time (s)
1	1000000	4067.16	8050.16	9019.25	63.1959	824.984
2	794330	6104.9	8168.4	10197.7	53.2263	827.215
3	630960	8047.39	8733.53	11875.8	47.3414	829.556
4	501190	9962.79	9483.44	13754.7	43.588	831.972
5	398110	12659.6	10850.9	16673.5	40.6008	841.122
6	316230	14791.9	11075.3	18478.7	36.8236	843.258
7	251190	16596.6	11157.8	19998.6	33.9127	852.303
8	199530	18633	11299.5	21791.5	31.2337	854.479
9	158490	20614.8	11267	23492.9	28.6587	856.77
10	125890	22560.5	11174.1	25176.1	26.349	858.966
11	100000	24439.1	10934.4	26773.7	24.1044	861.237
12	79433	26233	10591.5	28290.4	21.9862	863.438
13	63096	27968.2	10184	29764.6	20.0079	865.544
14	50119	29602.3	9671.18	31142.1	18.0924	867.78
15	39811	31138.7	9042.97	32425.2	16.1938	870.112
16	31623	32489.1	8315.9	33536.5	14.3572	872.398
17	25119	33636.1	7697.02	34505.6	12.8892	874.554
18	19953	34718.2	7050.62	35426.9	11.4796	876.78
19	15849	35711.6	6386.5	36278.2	10.1393	878.931
20	12589	36595.4	5802.29	37052.5	9.0094	881.052
21	10000	37334.1	5180.48	37691.8	7.89992	885.264
22	7943.3	37962.9	4648.06	38246.4	6.98038	887.285
23	6309.6	38527.1	4163.44	38751.4	6.16774	889.531
24	5011.9	39013.6	3729.72	39191.5	5.46091	891.812
25	3981.1	39422.8	3339.18	39563.9	4.84149	893.973
26	3162.3	39807.4	2999.96	39920.3	4.30977	896.119
27	2511.9	40129.4	2700.69	40220.2	3.85017	898.275
28	1995.3	40420.3	2436.71	40493.7	3.44986	900.496
29	1584.9	40701.4	2221.55	40762	3.1242	902.767
30	1258.9	40927.6	2047.22	40978.8	2.86357	904.978
31	1000	41146.4	1863.55	41188.6	2.5932	907.049
32	794.33	41370.7	1726.42	41406.7	2.3896	909.435
33	630.96	41555.1	1606.83	41586.1	2.21438	911.641
34	501.19	41743.7	1511.42	41771.1	2.07361	913.962
35	398.11	41905.1	1430.52	41929.5	1.95515	916.008
36	316.23	42092.8	1370.67	42115.1	1.86507	918.054
37	251.19	42259	1326.52	42279.8	1.79793	920.19
38	199.53	42404.9	1298.72	42424.8	1.75423	922.326
39	158.49	42544.6	1284.96	42564	1.72996	924.523
40	125.89	42711.9	1286.38	42731.2	1.72509	926.794
41	100	42842.5	1304.03	42862.4	1.74341	929.08
42	79.433	43000.8	1336.42	43021.5	1.78012	931.326
43	63.096	43156.4	1392.72	43178.8	1.84838	933.717
44	50.119	43322.9	1466.75	43347.7	1.93907	935.953
45	39.811	43477.6	1553.8	43505.4	2.04676	945.984
46	31.623	43653	1667.95	43684.9	2.18817	948.54
47	25.119	43862.9	1810.86	43900.2	2.36408	951.131
48	19.953	44067.3	1999.21	44112.6	2.59757	953.952
49	15.849	44308.3	2206.83	44363.3	2.85133	956.743
50	12.589	44569.3	2439.45	44636	3.13289	959.699
51	10	44856.7	2712.79	44938.7	3.46085	962.755
52	7.9433	45166.8	3014.65	45267.3	3.81853	965.886
53	6.3096	45565.5	3364.08	45689.5	4.22246	969.022
54	5.0119	45959.3	3744.79	46111.6	4.6582	972.343
55	3.9811	46412.5	4180.1	46600.3	5.14641	975.819
56	3.1623	46895.3	4649.43	47125.2	5.66208	979.131
57	2.5119	47422.9	5219.48	47709.3	6.28083	982.512
58	1.9953	47982.1	5869.85	48339.8	6.97458	985.983
59	1.5849	48579.1	6605.15	49026.1	7.74285	989.639
60	1.2589	49234.3	7472.29	49798.1	8.62993	993.425
61	1	49888	8541.99	50614.1	9.71615	1000.33
62	0.79433	50738.3	9820.24	51679.9	10.954	1004.36
63	0.63096	51533.7	11235.9	52744.3	12.2997	1008.65
64	0.50119	52417.2	13062	54020.2	13.9928	1013.45
65	0.39811	53468.1	15292.7	55612.1	15.9614	1018.51
66	0.31623	54917.6	18194.9	57853.3	18.3307	1024.32
67	0.25119	56438	21433.7	60371	20.7955	1030.81
68	0.19953	58280.8	24728	63309.7	22.9911	1037.85
69	0.15849	60734	29313.6	67438.1	25.7645	1046.05
70	0.12589	63399.3	34424	72142.1	28.5007	1055.48
71	0.1	65877.1	40162.4	77154.5	31.3688	1066.54

File: Z_p24_1.txt
Index	Frequency (Hz)	Z' (Ω)	-Z'' (Ω)	Z (Ω)	-Phase (°)	Time (s)
1	1000000	3483.15	6855.44	7689.56	63.0655	135.366
2	794330	4983.24	7105.48	8678.74	54.9571	142.366
3	630960	6627.85	7809.75	10243.1	49.68	149.012
4	501190	8251.79	8557.85	11888.2	46.0431	153.647
5	398110	10442	9845.68	14351.7	43.3164	161.362
6	316230	12180.5	10440.9	16042.9	40.6026	163.342
7	251190	13928	10488.1	17435.3	36.9804	173.182
8	199530	15822.3	10862.2	19192	34.47	175.732
9	158490	17730.1	11036.3	20884.3	31.9006	177.342
10	125890	19694.5	11121.4	22617.7	29.4533	179.587
11	100000	21584.9	11070.6	24258.3	27.1527	181.552
12	79433	23426.7	10900.6	25838.6	24.9528	183.392
13	63096	25324.3	10672.6	27481.4	22.8524	186.277
14	50119	27039.9	10283.8	28929.4	20.8228	188.462
15	39811	28816.5	9785.33	30432.6	18.7562	190.362
16	31623	30305.9	9190.05	31668.7	16.8695	192.282
17	25119	31660.4	8494.06	32780	15.018	193.847
18	19953	32912.8	7916.2	33851.5	13.5239	195.512
19	15849	34024	7230.43	34783.8	11.9974	197.112
20	12589	35060.1	6595.52	35675.1	10.654	198.672
21	10000	35935.9	5929.16	36421.8	9.36897	201.248
22	7943.3	36701.5	5345.89	37088.8	8.28734	202.898
23	6309.6	37341.6	4799.5	37648.8	7.32405	205.738
24	5011.9	37923.8	4308.16	38167.7	6.48105	208.773
25	3981.1	38424.6	3866.17	38618.7	5.74559	210.638
26	3162.3	38855.3	3468.62	39009.8	5.10127	212.668
27	2511.9	39258.9	3120.61	39382.8	4.54477	214.553
28	1995.3	39595.4	2817.77	39695.5	4.07054	216.908
29	1584.9	39908.9	2553.41	39990.5	3.66086	220.018
30	1258.9	40178.6	2321.01	40245.6	3.30615	222.068
31	1000	40439.6	2122.9	40495.2	3.00502	224.328
32	794.33	40689.4	1953.24	40736.3	2.74829	226.218
33	630.96	40913	1808.59	40952.9	2.53116	228.153
34	501.19	41105.8	1686.29	41140.4	2.34914	230.028
35	398.11	41298.8	1585.75	41329.3	2.19891	231.778
36	316.23	41510.9	1499.5	41538	2.0688	236.218
37	251.19	41669.3	1433.34	41693.9	1.97009	239.828
38	199.53	41836	1383.49	41858.9	1.89404	242.763
39	158.49	42001.1	1350.9	42022.9	1.8422	245.433
40	125.89	42179.6	1326.53	42200.4	1.80134	249.953
41	100	42312.4	1321.49	42333.1	1.78887	252.168
42	79.433	42461.5	1325.33	42482.2	1.78776	254.099
43	63.096	42601.9	1353.64	42623.4	1.81992	256.049
44	50.119	42799.4	1364.31	42821.1	1.82579	258.044
45	39.811	42933.3	1425.62	42957	1.90183	267.604
46	31.623	43126.9	1491.92	43152.7	1.98128	269.619
47	25.119	43299.2	1577.89	43327.9	2.08703	271.514
48	19.953	43486.4	1703.54	43519.8	2.24336	274.059
49	15.849	43661.7	1838.19	43700.4	2.41077	276.684
50	12.589	43865.1	1994.55	43910.4	2.60345	279.169
51	10	44122	2196.76	44176.7	2.85031	281.824
52	7.9433	44362	2423.59	44428.2	3.12708	284.454
53	6.3096	44665.3	2689.13	44746.2	3.4454	287.009
54	5.0119	44948	2989.66	45047.4	3.80534	289.719
55	3.9811	45286.4	3342.84	45409.6	4.22167	292.569
56	3.1623	45675.5	3744.31	45828.7	4.68642	295.529
57	2.5119	46055.2	4199.96	46246.3	5.21063	298.749
58	1.9953	46516.7	4729.09	46756.4	5.805	301.824
59	1.5849	46977.9	5367.91	47283.6	6.51861	304.919
60	1.2589	47468.7	6061.93	47854.2	7.2775	308.605
61	1	48018.1	6943.65	48517.5	8.22822	314.62
62	0.79433	48706.6	7981.96	49356.3	9.30681	318.205
63	0.63096	49336.1	9252.57	50196.2	10.622	322.31
64	0.50119	50007.5	10671.8	51133.5	12.0464	326.855
65	0.39811	50682.2	12645.8	52236	14.0098	331.535
66	0.31623	51580.3	14934.7	53698.9	16.148	336.775
67	0.25119	52966.8	17809.1	55880.7	18.5843	342.605
68	0.19953	54067.5	21005.5	58004.6	21.2314	349.34
69	0.15849	55681.6	24740.4	60930.5	23.9564	357.215
70	0.12589	57653.3	29807.7	64903	27.3397	366.166
71	0.1	60555.1	35061.8	69973.2	30.0711	376.576

File: Z_p24_2.txt
Index	Frequency (Hz)	Z' (Ω)	-Z'' (Ω)	Z (Ω)	-Phase (°)	Time (s)
1	1000000	3370.87	6808.45	7597.21	63.6599	464.803
2	794330	4980.35	7103.86	8675.75	54.9666	466.688
3	630960	6655.78	7800.17	10253.9	49.5263	468.978
4	501190	8277.96	8465.44	11840.1	45.6415	471.448
5	398110	10437.8	9831.43	14338.9	43.2865	478.063
6	316230	12305.3	10325	16063.2	39.999	479.744
7	251190	13935	10483.4	17438.1	36.9544	485.869
8	199530	15813.9	10818.3	19160.3	34.3761	487.519
9	158490	17723.8	11052.2	20887.4	31.9467	489.369
10	125890	19671.4	11098.3	22586.2	29.4312	490.974
11	100000	21564.7	11058.5	24234.9	27.149	492.764
12	79433	23432.5	10910	25847.8	24.9664	494.519
13	63096	25236.4	10659.6	27395.3	22.8988	496.024
14	50119	27054	10279.6	28941.1	20.8052	497.664
15	39811	28690.2	9718.06	30291.4	18.7125	499.419
16	31623	30262.6	9147.92	31615	16.8193	501.174
17	25119	31592.8	8493.93	32714.7	15.0485	502.919
18	19953	32891	7880.23	33821.8	13.4733	504.574
19	15849	33990.9	7235.48	34752.4	12.0169	506.954
20	12589	35030.8	6552.47	35638.3	10.5947	508.699
21	10000	35880.1	5918.23	36365	9.36628	511.494
22	7943.3	36625.3	5330.9	37011.2	8.28139	513.119
23	6309.6	37311.5	4794.1	37618.2	7.32175	514.889
24	5011.9	37885.5	4301.14	38128.9	6.47705	516.654
25	3981.1	38380.4	3862.03	38574.2	5.74605	518.584
26	3162.3	38829.6	3465.08	38983.9	5.09947	520.344
27	2511.9	39223.9	3120.94	39347.9	4.54929	521.889
28	1995.3	39554.6	2815.56	39654.7	4.07153	523.664
29	1584.9	39858.2	2549.88	39939.7	3.66044	525.109
30	1258.9	40152.8	2323.27	40220	3.31148	526.649
31	1000	40411.1	2121.28	40466.8	3.00483	528.254
32	794.33	40639.8	1952.25	40686.7	2.75025	530.184
33	630.96	40869.6	1807.31	40909.5	2.53205	531.824
34	501.19	41087.6	1684.24	41122.1	2.34732	533.66
35	398.11	41269.9	1584.55	41300.3	2.19877	535.55
36	316.23	41433.7	1498.09	41460.8	2.07071	537.42
37	251.19	41626.8	1431.79	41651.4	1.96997	539.14
38	199.53	41806.3	1389.48	41829.4	1.90359	540.63
39	158.49	41952.4	1352.46	41974.1	1.84647	542.135
40	125.89	42105.5	1331.12	42126.5	1.81074	543.81
41	100	42260.9	1320.53	42281.5	1.78974	545.46
42	79.433	42416.8	1328.6	42437.6	1.79406	547.225
43	63.096	42580.2	1353.4	42601.7	1.82052	549.21
44	50.119	42768.1	1361.51	42789.7	1.82337	551.015
45	39.811	42914	1436.08	42938	1.91664	560.445
46	31.623	43092.6	1504.36	43118.8	1.99938	562.4
47	25.119	43259.2	1589.74	43288.4	2.10462	564.4
48	19.953	43468.9	1713.14	43502.7	2.2569	567.36
49	15.849	43643.2	1854.26	43682.5	2.43285	569.76
50	12.589	43866.7	2020.65	43913.2	2.63738	572.17
51	10	44089.1	2220.67	44145	2.88342	574.735
52	7.9433	44355.2	2451.22	44422.9	3.16314	577.575
53	6.3096	44624.8	2718.96	44707.6	3.48668	580.155
54	5.0119	44926.6	3025.29	45028.3	3.8524	582.81
55	3.9811	45294.3	3379.86	45420.3	4.2675	585.79
56	3.1623	45687.7	3800.21	45845.5	4.7548	588.611
57	2.5119	46075.8	4251.52	46271.5	5.27189	591.516
58	1.9953	46530.5	4801.26	46777.5	5.89123	594.341
59	1.5849	47017.6	5413.64	47328.2	6.56815	597.496
60	1.2589	47494	6157.94	47891.5	7.3876	600.646
61	1	48057.2	7029.28	48568.5	8.32159	606.376
62	0.79433	48715.2	8104.43	49384.7	9.44542	609.716
63	0.63096	49417.5	9288.43	50282.8	10.645	613.376
64	0.50119	50093.2	10845.7	51253.8	12.2166	617.471
65	0.39811	50882.9	12869.8	52485.3	14.1941	621.846
66	0.31623	51956.1	15065.1	54096.1	16.1699	626.621
67	0.25119	52832.1	17850.2	55766.1	18.6684	632.316
68	0.19953	54347.7	20979	58256.2	21.1073	638.756
69	0.15849	55917.8	24876.5	61201.6	23.9832	646.337
70	0.12589	57766.5	29902.5	65047.1	27.3681	655.162
71	0.1	60780.4	35421.4	70348.7	30.2326	665.492