Folder: Streamlit_cement_impedance/data/20200619 (part 10)

File: Z_p38_3.txt
Index	Frequency (Hz)	Z' (Ω)	-Z'' (Ω)	Z (Ω)	-Phase (°)	Time (s)
1	1000000	3416.58	2929.09	4500.29	40.607	632.032
2	794330	3910.94	2657.65	4728.48	34.1978	634.418
3	630960	4441.54	2550.72	5121.86	29.8681	637.199
4	501190	4959.03	2433.38	5523.89	26.1371	639.86
5	398110	5514.19	2287.37	5969.78	22.5294	649.32
6	316230	5914.18	2110.54	6279.48	19.6395	651.521
7	251190	6177.12	1868.45	6453.52	16.8294	659.221
8	199530	6491.12	1714.42	6713.71	14.795	661.482
9	158490	6757.32	1545.5	6931.8	12.8828	663.728
10	125890	6988.08	1384.96	7124	11.2101	665.844
11	100000	7168	1229.08	7272.61	9.72976	667.935
12	79433	7322.85	1086.45	7403.01	8.43908	669.986
13	63096	7449.01	956.924	7510.22	7.32031	672.152
14	50119	7556.5	839.583	7603	6.33998	674.528
15	39811	7648.64	734.82	7683.85	5.48768	676.679
16	31623	7715.58	645.984	7742.58	4.7859	679.07
17	25119	7784.71	572.912	7805.76	4.20907	681.566
18	19953	7843.5	512.234	7860.2	3.7365	684.642
19	15849	7897.74	455.568	7910.87	3.30136	687.008
20	12589	7943.49	407.248	7953.92	2.93488	689.199
21	10000	7983	368.94	7991.52	2.64608	691.535
22	7943.3	8025.16	335.837	8032.18	2.39631	693.706
23	6309.6	8061.45	307.258	8067.3	2.18274	695.962
24	5011.9	8093.2	282.83	8098.14	2.00148	698.853
25	3981.1	8127.8	262.602	8132.04	1.85053	701.434
26	3162.3	8159.63	243.442	8163.26	1.70891	703.815
27	2511.9	8184.56	229.405	8187.78	1.60552	706.656
28	1995.3	8212.38	214.9	8215.19	1.49896	708.918
29	1584.9	8236.52	203.689	8239.04	1.41663	711.099
30	1258.9	8262.77	192.96	8265.02	1.33778	713.925
31	1000	8285.53	183.058	8287.55	1.26567	716.716
32	794.33	8310.23	175.53	8312.09	1.21003	719.467
33	630.96	8330.97	166.807	8332.64	1.14705	721.533
34	501.19	8353.26	159.927	8354.79	1.09682	723.659
35	398.11	8378.71	155.138	8380.14	1.06076	726.175
36	316.23	8400.02	149.454	8401.35	1.0193	728.451
37	251.19	8415.97	147.762	8417.26	1.00586	730.992
38	199.53	8441.07	144.684	8442.31	0.981978	733.208
39	158.49	8459.6	143.252	8460.81	0.970133	735.529
40	125.89	8476.03	143.922	8477.26	0.972784	737.92
41	100	8495	146.003	8496.25	0.984642	740.101
42	79.433	8516.09	146.242	8517.35	0.983809	742.352
43	63.096	8531.22	147.599	8532.5	0.991177	744.903
44	50.119	8593.42	186.335	8595.44	1.24218	747.424
45	39.811	8567.49	161.981	8569.02	1.08313	757.855
46	31.623	8588.73	168.408	8590.38	1.12331	760.396
47	25.119	8608.51	180.521	8610.4	1.20132	762.723
48	19.953	8631.24	193.682	8633.41	1.28548	765.384
49	15.849	8656.73	214.375	8659.38	1.41859	768.085
50	12.589	8676.81	233.584	8679.95	1.54206	771.006
51	10	8693.96	255.93	8697.73	1.68617	774.117
52	7.9433	8719.24	292.706	8724.16	1.9227	777.573
53	6.3096	8748.8	324.94	8754.84	2.12705	780.704
54	5.0119	8773.18	376.644	8781.26	2.45827	783.995
55	3.9811	8798.36	429.915	8808.86	2.79742	787.291
56	3.1623	8821.77	484.326	8835.06	3.14245	790.777
57	2.5119	8859.39	590.283	8879.03	3.81187	794.168
58	1.9953	8890.6	719.492	8919.66	4.62671	797.914
59	1.5849	8944.32	790.933	8979.22	5.05344	801.765
60	1.2589	8965.58	954.268	9016.23	6.07551	805.786
61	1	9050.69	1176.9	9126.89	7.40884	812.598
62	0.79433	9139.48	1417.47	9248.75	8.81592	816.575
63	0.63096	9195.48	1704.16	9352.06	10.4993	821.251
64	0.50119	9306.48	2046.32	9528.8	12.4009	826.617
65	0.39811	9409.19	2507.19	9737.5	14.9204	831.973
66	0.31623	9558.67	3005.65	10020.1	17.4554	837.964
67	0.25119	9748.31	3662.39	10413.6	20.591	844.57
68	0.19953	9910.87	4401.09	10844.1	23.9445	852.056
69	0.15849	10191.5	5430.88	11548.2	28.0524	860.842
70	0.12589	10481.8	6601.35	12387.3	32.2024	870.459
71	0.1	10916.1	7876.2	13460.9	35.8112	881.285

File: Z_p39_1.txt
Index	Frequency (Hz)	Z' (Ω)	-Z'' (Ω)	Z (Ω)	-Phase (°)	Time (s)
1	1000000	2454.08	1770.78	3026.25	35.813	148.633
2	794330	2739.75	1654.52	3200.57	31.1276	150.303
3	630960	3048.68	1569.44	3428.94	27.2391	151.668
4	501190	3348.29	1489.09	3664.48	23.9762	153.083
5	398110	3647.78	1341.25	3886.55	20.188	157.263
6	316230	3873.98	1236.91	4066.65	17.7076	158.583
7	251190	4005.73	1085.01	4150.08	15.1557	162.693
8	199530	4191.65	985.551	4305.95	13.2312	163.968
9	158490	4344.93	879.844	4433.12	11.4475	165.348
10	125890	4468.43	780.309	4536.05	9.90551	166.703
11	100000	4565.87	685.949	4617.11	8.54389	168.138
12	79433	4647.81	601.407	4686.56	7.37286	169.418
13	63096	4711.84	526.236	4741.14	6.3726	170.873
14	50119	4769.56	461.074	4791.79	5.52163	172.248
15	39811	4813.7	403.946	4830.62	4.79679	173.708
16	31623	4852.21	355.473	4865.21	4.19001	174.973
17	25119	4885.69	317.893	4896.02	3.72277	176.368
18	19953	4916.28	286.713	4924.63	3.33766	177.723
19	15849	4945.11	260.254	4951.96	3.01261	179.148
20	12589	4969.16	239.234	4974.91	2.7563	180.538
21	10000	4993.33	222.29	4998.27	2.54898	181.858
22	7943.3	5019.34	208.751	5023.68	2.38152	183.208
23	6309.6	5043.5	197.935	5047.38	2.24745	184.523
24	5011.9	5064.1	189.88	5067.66	2.14732	185.783
25	3981.1	5086.74	184.122	5090.07	2.073	187.083
26	3162.3	5108.9	179.698	5112.06	2.01447	188.398
27	2511.9	5132.14	176.68	5135.18	1.9717	189.768
28	1995.3	5152.72	175.95	5155.73	1.95572	191.068
29	1584.9	5175.21	175.726	5178.2	1.94475	192.273
30	1258.9	5197.7	176.621	5200.7	1.9462	193.498
31	1000	5219.59	178.724	5222.65	1.96109	194.788
32	794.33	5244	181.301	5247.13	1.9801	196.183
33	630.96	5267.92	185.395	5271.18	2.01559	197.483
34	501.19	5292.39	190.615	5295.82	2.06272	198.768
35	398.11	5320.65	197.795	5324.33	2.12899	199.913
36	316.23	5345	206.117	5348.97	2.20838	201.268
37	251.19	5370.19	217.042	5374.57	2.31441	202.569
38	199.53	5400.4	228.946	5405.26	2.42756	203.899
39	158.49	5431.34	244.012	5436.82	2.57238	205.244
40	125.89	5461.4	259.934	5467.58	2.72493	206.629
41	100	5495.3	279.725	5502.41	2.91399	207.854
42	79.433	5530.51	302.252	5538.76	3.1282	209.319
43	63.096	5572.78	326.127	5582.31	3.34922	210.804
44	50.119	5610.45	355.454	5621.7	3.62516	212.319
45	39.811	5655.35	386.499	5668.55	3.90964	221.384
46	31.623	5707.53	420.699	5723.02	4.21562	223.029
47	25.119	5759.02	459.959	5777.36	4.56638	224.574
48	19.953	5819.92	507.277	5841.99	4.98144	226.504
49	15.849	5885.53	555.284	5911.67	5.38975	228.504
50	12.589	5956.32	611.164	5987.6	5.85848	230.554
51	10	6033.41	668.74	6070.36	6.32482	232.844
52	7.9433	6122.53	739.847	6167.07	6.89021	235.124
53	6.3096	6208.71	810.265	6261.36	7.43533	237.454
54	5.0119	6304.38	894.101	6367.47	8.07198	239.824
55	3.9811	6405.63	985.165	6480.94	8.7434	242.194
56	3.1623	6510.21	1099.11	6602.34	9.58276	244.624
57	2.5119	6631.22	1221.12	6742.72	10.434	247.284
58	1.9953	6756.31	1366.16	6893.05	11.4314	249.884
59	1.5849	6869.75	1567.7	7046.36	12.855	252.599
60	1.2589	7014.34	1765.07	7233.01	14.1245	255.419
61	1	7166.14	2032.31	7448.74	15.8333	260.505
62	0.79433	7335.13	2351.8	7702.93	17.777	263.655
63	0.63096	7503.49	2711.55	7978.4	19.8685	267.255
64	0.50119	7674.18	3199.88	8314.58	22.6345	271.03
65	0.39811	7873.39	3761.53	8725.79	25.5362	275.29
66	0.31623	8134.12	4503.23	9297.47	28.9699	280.045
67	0.25119	8402.51	5310.26	9939.87	32.2923	285.45
68	0.19953	8741.25	6332.41	10793.9	35.9207	291.625
69	0.15849	9088.22	7613.01	11855.5	39.9522	298.875
70	0.12589	9576.76	9245.74	13311.6	43.9925	307.425
71	0.1	10165.5	10993.5	14973.2	47.241	317.666

File: Z_p39_2.txt
Index	Frequency (Hz)	Z' (Ω)	-Z'' (Ω)	Z (Ω)	-Phase (°)	Time (s)
1	1000000	2482.79	1767.82	3047.85	35.452	463.269
2	794330	2750.99	1639.25	3202.35	30.7897	464.689
3	630960	3056.28	1560.92	3431.81	27.0546	466.099
4	501190	3343.22	1467.04	3650.93	23.6925	467.549
5	398110	3638.25	1343.53	3878.4	20.2681	471.549
6	316230	3878.64	1227.93	4068.37	17.5672	472.859
7	251190	4003.42	1076.2	4145.55	15.0465	476.899
8	199530	4190.13	979.622	4303.12	13.159	478.159
9	158490	4340.02	876.605	4427.66	11.4191	479.514
10	125890	4461.41	776.411	4528.47	9.8722	480.804
11	100000	4560.11	682.76	4610.94	8.51534	482.179
12	79433	4639.06	598.973	4677.57	7.35706	483.44
13	63096	4707.24	523.794	4736.3	6.34942	484.8
14	50119	4761.44	458.664	4783.49	5.50226	486.18
15	39811	4809.93	401.197	4826.63	4.76802	487.65
16	31623	4846.24	354.491	4859.18	4.18361	488.925
17	25119	4876.74	316.773	4887.02	3.71648	490.175
18	19953	4908.02	285.389	4916.31	3.32786	491.465
19	15849	4937.09	258.768	4943.87	3.0003	492.8
20	12589	4963.25	238.332	4968.97	2.74919	494.19
21	10000	4987.64	221.027	4992.53	2.5374	495.575
22	7943.3	5013.5	207.507	5017.79	2.3701	496.905
23	6309.6	5033.28	197.791	5037.16	2.25038	498.23
24	5011.9	5057.31	189.211	5060.84	2.14263	499.58
25	3981.1	5078.61	183.613	5081.93	2.07058	500.9
26	3162.3	5100.12	179.447	5103.28	2.01511	502.19
27	2511.9	5121.44	175.865	5124.45	1.96671	503.58
28	1995.3	5145.6	175.698	5148.6	1.95562	504.845
29	1584.9	5166.54	175.263	5169.51	1.94289	506.01
30	1258.9	5190.57	176.305	5193.56	1.94539	507.27
31	1000	5211.62	178.097	5214.67	1.95721	508.63
32	794.33	5236.67	181.094	5239.8	1.98061	510.06
33	630.96	5259.76	185.204	5263.02	2.01664	511.4
34	501.19	5285.83	190.189	5289.25	2.06066	512.68
35	398.11	5311.02	197.174	5314.68	2.12615	513.935
36	316.23	5334.91	205.397	5338.86	2.20483	515.18
37	251.19	5363.92	216.203	5368.27	2.30817	516.475
38	199.53	5393.03	228.063	5397.85	2.4215	517.805
39	158.49	5423.78	242.976	5429.22	2.56503	519.17
40	125.89	5452.16	260.277	5458.37	2.73313	520.565
41	100	5486.14	279.261	5493.24	2.91401	521.915
42	79.433	5522.76	300.341	5530.92	3.11282	523.35
43	63.096	5561.12	325.185	5570.62	3.34654	524.815
44	50.119	5597.59	350.558	5608.56	3.58356	526.24
45	39.811	5646.82	383.056	5659.8	3.88075	535.305
46	31.623	5696.63	418.987	5712.02	4.20653	536.88
47	25.119	5750.23	459.058	5768.52	4.56441	538.391
48	19.953	5811.97	504.92	5833.87	4.96516	540.221
49	15.849	5876.23	553.38	5902.23	5.37983	542.136
50	12.589	5947.78	607.924	5978.77	5.83595	544.216
51	10	6023.33	668.788	6060.34	6.33577	546.471
52	7.9433	6105.4	733.248	6149.27	6.84832	548.726
53	6.3096	6199.72	805.686	6251.85	7.40439	551.141
54	5.0119	6298.54	888.188	6360.86	8.02663	553.586
55	3.9811	6391.27	981.121	6466.14	8.72732	556.026
56	3.1623	6498.62	1084.74	6588.53	9.47636	558.461
57	2.5119	6609.35	1209.45	6719.1	10.3699	561.016
58	1.9953	6732.83	1360.15	6868.85	11.4211	563.631
59	1.5849	6866.69	1557.18	7041.04	12.777	566.391
60	1.2589	6992.52	1773.59	7213.94	14.2324	569.336
61	1	7143.63	2022.53	7424.42	15.808	574.506
62	0.79433	7313.39	2331.7	7676.1	17.6837	577.576
63	0.63096	7491.36	2719.12	7969.57	19.9493	581.106
64	0.50119	7677.98	3170.42	8306.8	22.4369	584.996
65	0.39811	7887.21	3766.11	8740.23	25.5243	589.336
66	0.31623	8137.92	4444.45	9272.48	28.6407	594.122
67	0.25119	8414.71	5355.74	9974.53	32.4756	599.462
68	0.19953	8723.93	6403.5	10821.8	36.2793	605.687
69	0.15849	9152.96	7665.74	11939	39.9467	612.857
70	0.12589	9603.95	9108.86	13236.6	43.4845	621.467
71	0.1	10016.7	11074.4	14932.4	47.8709	631.742

File: Z_p39_3.txt
Index	Frequency (Hz)	Z' (Ω)	-Z'' (Ω)	Z (Ω)	-Phase (°)	Time (s)
1	1000000	2502.89	1750.23	3054.13	34.9645	779.305
2	794330	2755.88	1630.47	3202.07	30.61	781.401
3	630960	3055.4	1543.53	3423.15	26.802	783.412
4	501190	3346.57	1469.49	3654.99	23.7065	785.553
5	398110	3640.15	1338.4	3878.4	20.1873	793.863
6	316230	3868.46	1232.91	4060.17	17.6775	795.779
7	251190	4000.35	1073.68	4141.93	15.0239	802.638
8	199530	4187.27	975.988	4299.51	13.1205	804.579
9	158490	4336.71	873.562	4423.82	11.3889	806.615
10	125890	4457.03	773.504	4523.65	9.84544	808.761
11	100000	4556.95	680.897	4607.54	8.49823	810.767
12	79433	4638.02	597.273	4676.32	7.33803	812.688
13	63096	4704.53	523.205	4733.53	6.34596	814.814
14	50119	4759.5	457.742	4781.46	5.49349	816.87
15	39811	4803.59	401.108	4820.31	4.77322	818.796
16	31623	4837.85	353.605	4850.76	4.18039	820.743
17	25119	4872.96	316.438	4883.23	3.71542	822.664
18	19953	4905.37	284.927	4913.64	3.32427	824.77
19	15849	4933.11	258.714	4939.89	3.0021	826.671
20	12589	4958.63	237.829	4964.33	2.74595	828.777
21	10000	4979.01	220.635	4983.9	2.53729	830.743
22	7943.3	5006.09	207.446	5010.38	2.37291	832.714
23	6309.6	5029.69	197.22	5033.56	2.24548	834.675
24	5011.9	5052.97	189.136	5056.51	2.14362	836.701
25	3981.1	5074.88	183.767	5078.21	2.07384	838.702
26	3162.3	5096.41	179.044	5099.56	2.01205	840.633
27	2511.9	5119.62	176.633	5122.67	1.97599	842.579
28	1995.3	5138.13	175.492	5141.12	1.95617	844.49
29	1584.9	5163.17	174.983	5166.14	1.94105	846.641
30	1258.9	5183.39	176.743	5186.4	1.95292	848.507
31	1000	5207.58	177.691	5210.61	1.95426	850.428
32	794.33	5229.63	180.611	5232.75	1.97798	852.594
33	630.96	5258	184.931	5261.25	2.01434	854.49
34	501.19	5277.76	189.976	5281.18	2.06151	856.426
35	398.11	5303.37	196.411	5307.01	2.12099	858.492
36	316.23	5331.63	204.787	5335.56	2.19964	860.388
37	251.19	5358.89	216.057	5363.24	2.30877	862.374
38	199.53	5386.79	228.255	5391.63	2.42635	864.425
39	158.49	5419.36	241.934	5424.75	2.55613	866.491
40	125.89	5448.38	258.883	5454.53	2.72039	868.592
41	100	5479.25	278.196	5486.31	2.90656	870.568
42	79.433	5517.92	299.664	5526.06	3.10853	872.589
43	63.096	5555.78	323.098	5565.17	3.32831	874.681
44	50.119	5600.44	328.753	5610.08	3.35948	876.637
45	39.811	5641.2	383.254	5654.2	3.88662	886.328
46	31.623	5688.92	417.849	5704.24	4.20081	888.709
47	25.119	5743.49	456.855	5761.63	4.54791	890.86
48	19.953	5802.59	503.706	5824.41	4.96125	893.386
49	15.849	5867.38	554.635	5893.53	5.40005	896.062
50	12.589	5940.46	605.78	5971.27	5.82262	898.623
51	10	6016.85	666.64	6053.66	6.32233	901.589
52	7.9433	6101.83	732.143	6145.6	6.84206	904.61
53	6.3096	6190.47	803.072	6242.35	7.39154	907.706
54	5.0119	6286.98	884.977	6348.96	8.01251	910.682
55	3.9811	6386.58	976.441	6460.79	8.69261	913.698
56	3.1623	6490.76	1085.29	6580.86	9.49234	917.029
57	2.5119	6608.79	1207.3	6718.16	10.3526	920.285
58	1.9953	6727.06	1348.18	6860.83	11.3326	923.661
59	1.5849	6863.32	1536.02	7033.1	12.615	927.052
60	1.2589	6977.21	1765.39	7197.09	14.1992	930.594
61	1	7135.95	2019.84	7416.3	15.8043	937.066
62	0.79433	7300.61	2338.05	7665.85	17.7579	940.802
63	0.63096	7467.22	2698.01	7939.69	19.8655	944.968
64	0.50119	7664.95	3188.53	8301.7	22.5867	949.384
65	0.39811	7873.92	3740.06	8717.03	25.4074	954.205
66	0.31623	8120.44	4477.62	9273.12	28.8724	959.611
67	0.25119	8414.07	5299.53	9943.92	32.2044	965.677
68	0.19953	8685.77	6392.38	10784.5	36.3516	972.563
69	0.15849	9040.07	7621.7	11824.3	40.1343	980.544
70	0.12589	9480.98	9193.06	13206.1	44.1167	989.746
71	0.1	10115.9	11115	15029.2	47.6943	1000.66

File: Z_p40_1.txt
Index	Frequency (Hz)	Z' (Ω)	-Z'' (Ω)	Z (Ω)	-Phase (°)	Time (s)
1	1000000	2409.2	1597.07	2890.48	33.5406	139.554
2	794330	2642.78	1491.16	3034.44	29.4334	140.899
3	630960	2917.67	1409.33	3240.21	25.782	142.329
4	501190	3185.4	1314.32	3445.9	22.4214	143.824
5	398110	3429.38	1202.37	3634.05	19.3211	148.895
6	316230	3639.66	1095.48	3800.94	16.7509	150.265
7	251190	3749.74	944.952	3866.97	14.1443	154.645
8	199530	3909.99	853.542	4002.07	12.3144	155.965
9	158490	4038.35	761.048	4109.43	10.6725	157.29
10	125890	4141.08	671.863	4195.22	9.21557	158.575
11	100000	4223.47	589.383	4264.39	7.9443	159.96
12	79433	4292.27	515.582	4323.12	6.84948	161.295
13	63096	4348.51	451.082	4371.85	5.92225	162.695
14	50119	4395.42	394.654	4413.1	5.13069	164.13
15	39811	4436.84	345.475	4450.27	4.45236	165.565
16	31623	4466.7	304.359	4477.06	3.89808	166.875
17	25119	4497.82	271.438	4506.01	3.45354	168.285
18	19953	4521.69	243.643	4528.25	3.0843	169.635
19	15849	4546.82	221.372	4552.21	2.78736	171.06
20	12589	4569.07	203.13	4573.58	2.54556	172.46
21	10000	4587.26	188.235	4591.12	2.34977	173.82
22	7943.3	4608.46	176.059	4611.82	2.18783	175.165
23	6309.6	4628.99	167.006	4632	2.06624	176.53
24	5011.9	4649.51	159.403	4652.24	1.96356	177.96
25	3981.1	4668.05	154.201	4670.6	1.89198	179.455
26	3162.3	4687.13	150.07	4689.53	1.83383	180.945
27	2511.9	4705.09	146.674	4707.38	1.78554	182.395
28	1995.3	4723.34	144.586	4725.55	1.75333	183.8
29	1584.9	4740.16	143.181	4742.32	1.73015	185.025
30	1258.9	4758.27	142.791	4760.41	1.71888	186.285
31	1000	4776.7	142.32	4778.82	1.70661	187.705
32	794.33	4799.81	142.659	4801.93	1.70243	189.235
33	630.96	4818.25	143.493	4820.39	1.70582	190.74
34	501.19	4835.05	145.079	4837.22	1.71868	192.26
35	398.11	4857.33	147.547	4859.57	1.73989	193.695
36	316.23	4875.31	151.045	4877.65	1.77454	195.17
37	251.19	4895.15	156.177	4897.64	1.82736	196.615
38	199.53	4915.83	162.75	4918.52	1.89622	198.045
39	158.49	4933.97	171.335	4936.94	1.98884	199.35
40	125.89	4956.8	181.489	4960.12	2.0969	200.82
41	100	4980.7	194.92	4984.51	2.24113	202.161
42	79.433	5001.8	210.333	5006.22	2.40795	203.711
43	63.096	5025.8	229.313	5031.03	2.61243	205.216
44	50.119	5039.51	252.058	5045.81	2.86334	206.821
45	39.811	5083.33	276.464	5090.84	3.11304	216.096
46	31.623	5115.11	306.371	5124.28	3.42765	217.816
47	25.119	5154.83	338.564	5165.93	3.75774	219.496
48	19.953	5197.05	378.822	5210.84	4.16902	221.331
49	15.849	5248.21	418.382	5264.86	4.55792	223.356
50	12.589	5302.35	464.626	5322.67	5.00783	225.471
51	10	5359.52	513.046	5384.02	5.46803	227.676
52	7.9433	5422.88	569.015	5452.65	5.99005	230.026
53	6.3096	5496.64	627.872	5532.38	6.51656	232.406
54	5.0119	5567.7	692.447	5610.59	7.08939	234.981
55	3.9811	5648.92	770.98	5701.29	7.77186	237.446
56	3.1623	5730.98	860.838	5795.27	8.54241	239.911
57	2.5119	5817.48	959.628	5896.09	9.36693	242.501
58	1.9953	5903.19	1096.38	6004.14	10.5215	245.301
59	1.5849	6011.08	1223.27	6134.28	11.5028	248.226
60	1.2589	6126.76	1434.97	6292.57	13.1819	251.341
61	1	6240.39	1607.42	6444.09	14.4444	256.607
62	0.79433	6381.67	1861.55	6647.64	16.2621	259.757
63	0.63096	6507.75	2145.63	6852.34	18.2476	263.367
64	0.50119	6641.65	2528.22	7106.57	20.8399	267.232
65	0.39811	6808.07	2964.11	7425.35	23.5274	271.607
66	0.31623	6971.79	3551.54	7824.27	26.995	276.367
67	0.25119	7223.72	4196.25	8354.08	30.1523	281.827
68	0.19953	7476.85	5028.2	9010.33	33.921	288.047
69	0.15849	7731.99	6018.47	9798.25	37.8967	295.257
70	0.12589	7967.85	7303.14	10808.5	42.5076	303.867
71	0.1	8448.9	8863.82	12245.5	46.3729	314.043

File: Z_p40_2.txt
Index	Frequency (Hz)	Z' (Ω)	-Z'' (Ω)	Z (Ω)	-Phase (°)	Time (s)
1	1000000	2408.18	1617.79	2901.13	33.8928	460.312
2	794330	2635.31	1494.12	3029.39	29.5516	461.767
3	630960	2912.19	1404.98	3233.39	25.7549	463.147
4	501190	3183.43	1309.99	3442.43	22.3673	464.632
5	398110	3431.19	1194.63	3633.21	19.1964	469.767
6	316230	3637.8	1093.23	3798.52	16.7266	471.172
7	251190	3744.66	942.827	3861.53	14.1321	475.762
8	199530	3903.86	853.784	3996.14	12.3365	477.167
9	158490	4036.26	759.716	4107.14	10.6596	478.432
10	125890	4136.78	670.446	4190.76	9.20585	479.772
11	100000	4220.64	588.579	4261.48	7.93884	481.228
12	79433	4290.22	515.138	4321.04	6.84688	482.713
13	63096	4344.93	450.184	4368.19	5.91538	484.183
14	50119	4394.11	394.543	4411.79	5.13078	485.638
15	39811	4432.92	344.784	4446.3	4.4474	487.028
16	31623	4463.6	302.823	4473.86	3.88116	488.423
17	25119	4492.77	271.28	4500.96	3.4554	489.753
18	19953	4518.95	243.428	4525.5	3.08344	491.083
19	15849	4542.57	221.382	4547.96	2.7901	492.443
20	12589	4563.6	203.398	4568.13	2.55197	493.808
21	10000	4583.45	187.735	4587.3	2.34549	495.173
22	7943.3	4607.67	176.148	4611.03	2.18932	496.533
23	6309.6	4626.72	166.743	4629.72	2.064	497.928
24	5011.9	4643.44	159.2	4646.17	1.96361	499.373
25	3981.1	4664.71	154.102	4667.25	1.89212	500.793
26	3162.3	4682.33	149.592	4684.72	1.82988	502.118
27	2511.9	4699.59	146.521	4701.87	1.78576	503.468
28	1995.3	4719.3	144.57	4721.52	1.75463	504.798
29	1584.9	4736.76	143.447	4738.93	1.7346	506.078
30	1258.9	4757.58	142.192	4759.71	1.71192	507.478
31	1000	4776.09	142.257	4778.21	1.70606	508.998
32	794.33	4794.12	142.302	4796.24	1.70019	510.563
33	630.96	4812.45	143.12	4814.57	1.70345	512.023
34	501.19	4831.57	144.901	4833.74	1.71781	513.493
35	398.11	4851.76	147.808	4854.01	1.74497	514.933
36	316.23	4871.32	150.829	4873.65	1.77346	516.288
37	251.19	4893.43	156.529	4895.93	1.83213	517.743
38	199.53	4910.36	162.947	4913.07	1.90063	518.958
39	158.49	4931.36	171.642	4934.34	1.99345	520.288
40	125.89	4953	182.96	4956.38	2.1155	521.838
41	100	4974.1	195.353	4977.94	2.24908	523.328
42	79.433	4998.56	211.133	5003.02	2.41867	524.888
43	63.096	5021.4	229.179	5026.63	2.61319	526.483
44	50.119	5041.05	238.485	5046.69	2.70857	528.118
45	39.811	5081.85	276.816	5089.39	3.1179	537.319
46	31.623	5115.52	307.677	5124.77	3.44196	539.034
47	25.119	5150.18	339.517	5161.36	3.77167	540.649
48	19.953	5196.34	378.957	5210.14	4.17106	542.554
49	15.849	5245.85	421.645	5262.76	4.59537	544.544
50	12.589	5300.45	466.23	5320.92	5.02682	546.619
51	10	5355.5	513.839	5380.09	5.48054	548.964
52	7.9433	5425.49	570.26	5455.37	6.00019	551.274
53	6.3096	5491.6	627.553	5527.34	6.5192	553.779
54	5.0119	5564.26	695.484	5607.55	7.12453	556.244
55	3.9811	5648.28	770.784	5700.63	7.77078	558.639
56	3.1623	5725.7	856.688	5789.44	8.50956	561.399
57	2.5119	5816.55	962.872	5895.7	9.39951	563.994
58	1.9953	5916.46	1095.01	6016.94	10.4855	566.594
59	1.5849	6031.31	1217.95	6153.06	11.4167	569.404
60	1.2589	6129.25	1395.01	6285.99	12.822	572.359
61	1	6237.71	1613.2	6442.93	14.5001	577.469
62	0.79433	6371.88	1858.95	6637.51	16.2642	580.649
63	0.63096	6522.13	2159.57	6870.36	18.3205	584.204
64	0.50119	6655.96	2515.53	7115.45	20.7034	588.109
65	0.39811	6825.79	2972.99	7445.14	23.5356	592.36
66	0.31623	6985.37	3524.44	7824.13	26.773	597.185
67	0.25119	7233.02	4248.64	8388.54	30.4298	602.635
68	0.19953	7456.79	5094.36	9030.85	34.3402	608.875
69	0.15849	7759	6098.4	9868.77	38.1666	616.155
70	0.12589	8052.6	7254.29	10838.3	42.0145	624.725
71	0.1	8336.16	8901.22	12195.2	46.8775	634.9

File: Z_p40_3.txt
Index	Frequency (Hz)	Z' (Ω)	-Z'' (Ω)	Z (Ω)	-Phase (°)	Time (s)
1	1000000	2414.14	1617.53	2905.94	33.8231	783.056
2	794330	2641.34	1492.31	3033.76	29.4656	785.141
3	630960	2913.28	1407.35	3235.41	25.7843	787.251
4	501190	3176.79	1308.02	3435.54	22.379	789.451
5	398110	3426.51	1191.05	3627.62	19.1673	798.156
6	316230	3626.34	1099.8	3789.45	16.8716	800.111
7	251190	3745.55	941.821	3862.15	14.1144	806.886
8	199530	3905.15	851.213	3996.85	12.2965	808.846
9	158490	4033.45	758.818	4104.2	10.6546	811.071
10	125890	4138.75	669.793	4192.6	9.19273	812.996
11	100000	4219.42	587.74	4260.16	7.92994	815.046
12	79433	4288.46	517.123	4319.53	6.8758	816.992
13	63096	4344.54	450.364	4367.82	5.91826	818.922
14	50119	4391.08	394.087	4408.73	5.12839	821.012
15	39811	4429.14	344.352	4442.51	4.44563	822.957
16	31623	4462.75	303	4473.03	3.88415	824.922
17	25119	4491.54	271.013	4499.71	3.45296	826.982
18	19953	4517.04	243.565	4523.6	3.08648	828.912
19	15849	4540.27	220.828	4545.63	2.78454	830.912
20	12589	4560.01	202.228	4564.49	2.5393	832.837
21	10000	4582.36	187.123	4586.18	2.3384	834.832
22	7943.3	4604.36	176.37	4607.74	2.19365	836.832
23	6309.6	4622.32	166.967	4625.34	2.06873	838.932
24	5011.9	4644.69	159.559	4647.43	1.96751	840.992
25	3981.1	4662.17	153.699	4664.7	1.88821	842.947
26	3162.3	4680.98	150.149	4683.39	1.83721	844.922
27	2511.9	4697.81	146.893	4700.11	1.79096	847.047
28	1995.3	4717.29	144.754	4719.52	1.75762	849.027
29	1584.9	4737.21	143.477	4739.39	1.73479	851.007
30	1258.9	4756.55	142.396	4758.68	1.71474	853.052
31	1000	4772.88	142.397	4775	1.70889	855.042
32	794.33	4792.72	142.305	4794.83	1.70073	857.247
33	630.96	4812.49	143.564	4814.63	1.70871	859.197
34	501.19	4829.99	144.718	4832.16	1.71621	861.217
35	398.11	4851.92	147.273	4854.15	1.7386	863.117
36	316.23	4870.54	151.261	4872.89	1.77883	865.047
37	251.19	4891.27	155.689	4893.75	1.82311	867.027
38	199.53	4910.97	162.843	4913.67	1.89917	868.982
39	158.49	4931.3	171.008	4934.27	1.98611	870.953
40	125.89	4951.92	180.931	4955.23	2.09251	872.993
41	100	4975.89	195.098	4979.71	2.24534	875.013
42	79.433	4996.04	210.846	5000.49	2.4166	877.093
43	63.096	5019.52	229.094	5024.75	2.61321	879.268
44	50.119	5045.82	257.069	5052.37	2.91652	881.273
45	39.811	5078.14	276.483	5085.66	3.11644	891.033
46	31.623	5114.34	306.135	5123.49	3.42553	893.413
47	25.119	5148.74	338.777	5159.87	3.76452	895.673
48	19.953	5196.83	379.813	5210.69	4.18006	898.218
49	15.849	5242.47	419.417	5259.22	4.57413	900.893
50	12.589	5299.81	465.524	5320.22	5.01986	903.588
51	10	5357.07	514.477	5381.71	5.48569	906.518
52	7.9433	5422.95	569.2	5452.74	5.99189	909.473
53	6.3096	5492.81	629.327	5528.75	6.53603	912.613
54	5.0119	5562.01	695.801	5605.36	7.13059	915.763
55	3.9811	5643.69	772.457	5696.31	7.79369	918.898
56	3.1623	5729.08	861.552	5793.5	8.55218	922.138
57	2.5119	5818.43	971.643	5899	9.48057	925.394
58	1.9953	5919.53	1073.75	6016.13	10.2811	928.784
59	1.5849	6014.43	1242.92	6141.52	11.6761	932.204
60	1.2589	6126.09	1388.24	6281.41	12.7682	935.824
61	1	6242.26	1610.51	6446.67	14.4669	942.169
62	0.79433	6383.24	1857.15	6647.91	16.2219	945.979
63	0.63096	6509.63	2167.32	6860.94	18.4147	950.124
64	0.50119	6662.03	2521.98	7123.41	20.7347	954.709
65	0.39811	6818.96	2972	7438.48	23.5497	959.689
66	0.31623	7020.95	3561.98	7872.83	26.9003	965.124
67	0.25119	7234	4210.2	8369.98	30.1995	971.204
68	0.19953	7443.62	5101.74	9024.15	34.4262	978.06
69	0.15849	7683.77	6102.18	9812.09	38.4554	985.945
70	0.12589	8012.53	7377.07	10891.4	42.6355	995.095
71	0.1	8463.96	8870.62	12260.8	46.3439	1005.97