Folder: Streamlit_cement_impedance/data/20200314

Note: README.md
# Software KDssZ version 1.0

This software tool works to analyze impedance measurements through a lumped circuital model.

## The repository contains:

- The Python module called [KDssZ.py](https://github.com/dantrica/Streamlit_cement_impedance/blob/c79735cefb679f8cb21de758db89e5011d7d15d4/KDssZ.py) contains the algorithms to optimize the electrical impedance measurements.
- The Python module called [appZ.py](https://github.com/dantrica/Streamlit_cement_impedance/blob/b421c1652a15b18d4e0220819822e362abc5bec6/appZ.py) contains the code to deploy the application on the Streamlit platform.
- All [data](https://github.com/dantrica/Streamlit_cement_impedance/tree/c79735cefb679f8cb21de758db89e5011d7d15d4/data) acquired during the experimental campaign is located in this repository Streamlit_cement_impedance/data/.
- The [Figures](https://github.com/dantrica/Streamlit_cement_impedance/tree/c79735cefb679f8cb21de758db89e5011d7d15d4/figures) folder contains an image describing the lumped circuit model.

## The left sidebar functionalities:

The user can upload the impedance measurements in format .txt. Moreover, this object contains the elements that will be presented in the left sidebar, such as i) the uploading file option, ii) the lumped circuit model, iii) Add and Remove buttons to move data in the Optimization zone, iv) Run and Reset buttons to start and clear the optimization.

## Project Description: 

$\texttt{KDssZ}$ has been developed to optimize experimental electrical impedance data to a lumped circuit model. This approach allows users to correlate the interactions among the components in the composite-electrodes, cement, nanoparticles, and pores with the measured impedance, which is analyzed across three frequency ranges: high, medium, and low. Although the software has been validated with impedance measurements from gold nanoparticles/cement-based composites, it can also be used to study the electrical properties of other cement-based composites. KDssZ is deployed on the Streamlit platform, and in line with the principles of open science, it allows researchers working on similar studies to use this tool to explore new research questions related to cement-based composites.

## Usage instructions:

The main functionalities of the software KDssZ are displayed in Figure~\ref{}, and enumerated according to the following list:

1. Push button \texttt{Browse Files} to upload \texttt{.txt} files with electrical impedance spectroscopy data.
2. Help menu explaining the format files to be received; help hints boxes to report whether a file was added previously or it is already in the optimization zone; and help tips on buttons.
3. Choosing the file data since Select tag.
4. Buttons $\texttt{Add data}$ and $\texttt{Remove}$, to add or remove data to the optimization zone.
5. Buttons $\texttt{Run}$ and $\texttt{Reset}$, to start the optimization, create the plots and return the DataFrame with the parameters.
6. Figures: wide mode and saving options.
7. T

File: Z_p7_1.txt
Index	Frequency (Hz)	Z' (Ω)	-Z'' (Ω)	Z (Ω)	-Phase (°)	Time (s)
1	1000000	1526.83	7939.18	8084.67	79.114	42.1895
2	794330	3012.02	9687.21	10144.7	72.7281	43.7846
3	630960	5762.78	12024.5	13334.1	64.3937	45.1746
4	501190	8438.3	15031.3	17237.9	60.691	46.7246
5	398110	11743.4	18325.1	21765	57.3467	52.5847
6	316230	15999.7	20152.3	25731.4	51.5526	53.9398
7	251190	20487.8	19676.5	28406.3	43.8428	58.9049
8	199530	24714.4	19435.1	31440.9	38.1811	60.2049
9	158490	28314.7	18664.9	33913.1	33.3926	61.4899
10	125890	31564.6	17614.5	36146.8	29.1635	62.8299
11	100000	34496.1	16404	38197.8	25.4325	64.285
12	79433	36973.7	15082.5	39931.7	22.1918	65.655
13	63096	39732.3	13550.2	41979.3	18.8313	67.13
14	50119	41250.6	12414	43078.1	16.7487	68.56
15	39811	42970.9	11154.4	44395	14.5517	69.9001
16	31623	44162.9	9664.81	45208.1	12.3442	71.2501
17	25119	45519.3	8568.56	46318.7	10.6606	72.6051
18	19953	46593.2	7843.73	47248.8	9.55587	73.9451
19	15849	47314.3	6634.58	47777.2	7.98218	75.2702
20	12589	47952.2	5984.54	48324.2	7.11386	76.5802
21	10000	48542.6	5289.95	48830	6.21929	77.9102
22	7943.3	49109.4	4624.11	49326.6	5.37907	79.2102
23	6309.6	49580.3	4130.39	49752.1	4.76214	80.5103
24	5011.9	50011.5	3619.36	50142.3	4.13931	81.8153
25	3981.1	50355.2	3197.3	50456.6	3.63311	83.1003
26	3162.3	50715.5	2935.88	50800.4	3.31311	84.4253
27	2511.9	51016.2	2667.08	51085.9	2.99264	85.7554
28	1995.3	51294.9	2420.6	51352	2.70178	87.0704
29	1584.9	51556.8	2235.1	51605.2	2.48235	88.3354
30	1258.9	51778.2	2085.77	51820.2	2.30679	89.6204
31	1000	52050.2	1942.38	52086.5	2.13714	90.9205
32	794.33	52267.3	1814.96	52298.8	1.98877	92.3505
33	630.96	52484.8	1713.11	52512.8	1.86947	93.6705
34	501.19	52720.4	1624.4	52745.4	1.76481	95.0455
35	398.11	52921.8	1563.07	52944.9	1.69177	96.2955
36	316.23	53122.8	1510.35	53144.3	1.62855	97.7056
37	251.19	53278.9	1465.11	53299.1	1.57517	99.2106
38	199.53	53514.3	1429.89	53533.4	1.53056	100.486
39	158.49	53687.1	1410.64	53705.6	1.50511	102.481
40	125.89	53852	1392.43	53870	1.48115	103.921
41	100	54055	1406.66	54073.3	1.49066	105.216
42	79.433	54235.2	1407.99	54253.4	1.48711	106.666
43	63.096	54526.4	1359.96	54543.3	1.42874	108.191
44	50.119	54584.8	1499.38	54605.4	1.57345	109.631
45	39.811	54797.7	1541.45	54819.4	1.6113	118.746
46	31.623	55012.4	1624.42	55036.4	1.69136	120.366
47	25.119	55194.8	1741.93	55222.3	1.80764	121.941
48	19.953	55375.8	1891.33	55408.1	1.95614	123.856
49	15.849	55584.6	2066.2	55623	2.12883	125.831
50	12.589	55827.2	2263.88	55873.1	2.32216	127.776
51	10	56090.9	2478.64	56145.6	2.53024	130.096
52	7.9433	56390.4	2761.69	56458	2.80379	132.446
53	6.3096	56731.3	3097.97	56815.9	3.12569	134.761
54	5.0119	57059.1	3463.27	57164.1	3.47338	137.166
55	3.9811	57469.5	3902.41	57601.9	3.88465	139.576
56	3.1623	57902.9	4402.48	58070	4.34796	142.061
57	2.5119	58326.5	5039.56	58543.8	4.93824	144.591
58	1.9953	58917.6	5687.28	59191.4	5.51365	147.276
59	1.5849	59462.6	6495.6	59816.4	6.23418	150.002
60	1.2589	60135.3	7423.62	60591.8	7.03748	152.867
61	1	60804.5	8525.5	61399.3	7.98151	157.907
62	0.79433	61608	9782.07	62379.8	9.02206	161.137
63	0.63096	62522.8	11285.3	63533.1	10.2316	164.692
64	0.50119	63369.1	13068.2	64702.5	11.6524	168.477
65	0.39811	64435.8	15234.1	66212.1	13.3018	172.667
66	0.31623	65527.9	18077.8	67975.9	15.4231	177.457
67	0.25119	67300.4	21111.4	70533.9	17.416	182.902
68	0.19953	68978.7	24944.8	73350.6	19.8816	189.102
69	0.15849	70707.6	29303.6	76539.3	22.5108	196.347
70	0.12589	72299.2	35118.2	80377	25.9074	204.938
71	0.1	75709	42057.9	86606.7	29.0531	215.103

File: Z_p21_1.txt
Index	Frequency (Hz)	Z' (Ω)	-Z'' (Ω)	Z (Ω)	-Phase (°)	Time (s)
1	1000000	2154.27	6066.8	6437.93	70.4504	130.486
2	794330	3401.83	6926.56	7716.85	63.843	132.061
3	630960	5032.37	8184	9607.43	58.4125	133.696
4	501190	7175.09	9150.5	11628.1	51.8993	135.411
5	398110	9432.97	10249.6	13929.6	47.3758	141.301
6	316230	11764.1	10801.9	15971.1	42.5583	142.646
7	251190	13810.7	10368.1	17269.4	36.8968	147.517
8	199530	15847.2	10146.8	18817.3	32.6309	148.902
9	158490	17575.9	9694.5	20072.2	28.8802	150.327
10	125890	19234.3	9185.4	21315	25.527	151.777
11	100000	20713	8599.09	22427	22.546	153.462
12	79433	22043.3	7945.71	23431.7	19.8221	154.952
13	63096	23287.2	7395.75	24433.4	17.6193	156.482
14	50119	24263.3	6563.95	25135.5	15.1379	157.832
15	39811	25187.5	5823.81	25852	13.019	159.222
16	31623	25887.7	5204.11	26405.6	11.3665	160.572
17	25119	26475.2	4580.57	26868.6	9.81576	161.862
18	19953	26973.2	4080.33	27280	8.60213	163.357
19	15849	27558.7	3560.05	27787.7	7.36075	164.667
20	12589	27922.4	3145.13	28099	6.4266	166.042
21	10000	28140.9	2775.73	28277.5	5.63325	168.497
22	7943.3	28427.8	2431.2	28531.5	4.88816	169.892
23	6309.6	28677.7	2148.84	28758.1	4.2852	171.327
24	5011.9	28895.9	1893.88	28957.9	3.74989	172.712
25	3981.1	29078.5	1704.2	29128.4	3.35409	174.012
26	3162.3	29241.9	1514.09	29281	2.96403	175.312
27	2511.9	29391.8	1366.18	29423.6	2.66129	176.667
28	1995.3	29531.9	1237.99	29557.8	2.40045	177.987
29	1584.9	29684	1133.61	29705.6	2.18702	179.287
30	1258.9	29789.1	1047.95	29807.5	2.01477	180.607
31	1000	29910.2	966.053	29925.8	1.84992	181.917
32	794.33	30013.3	900.077	30026.8	1.71774	183.337
33	630.96	30133	845.545	30144.8	1.60733	184.627
34	501.19	30230	792.431	30240.4	1.50157	185.952
35	398.11	30345	753.867	30354.4	1.42312	187.237
36	316.23	30426	720.694	30434.5	1.3569	188.527
37	251.19	30518.5	692.156	30526.4	1.29924	189.927
38	199.53	30614.5	673.397	30621.9	1.26007	191.282
39	158.49	30708.6	656.833	30715.6	1.22532	192.647
40	125.89	30793.4	644.125	30800.2	1.19832	194.027
41	100	30868.4	641.395	30875.1	1.19034	195.312
42	79.433	30949.4	635.673	30956	1.17664	196.737
43	63.096	30999.4	624.437	31005.7	1.15398	198.207
44	50.119	31095.8	615.288	31101.9	1.13356	199.557
45	39.811	31198.6	675.352	31206	1.24008	208.688
46	31.623	31274.6	706.542	31282.5	1.29418	210.338
47	25.119	31368.2	741.082	31377	1.35338	211.908
48	19.953	31445.1	807.788	31455.5	1.47154	213.848
49	15.849	31542.1	867.866	31554.1	1.57607	215.823
50	12.589	31652.2	952.722	31666.5	1.72407	217.843
51	10	31759.4	1036.99	31776.3	1.87013	220.153
52	7.9433	31864.7	1155.57	31885.7	2.07692	222.543
53	6.3096	31999.9	1292.34	32026	2.31267	224.873
54	5.0119	32149.7	1451.22	32182.4	2.58455	227.298
55	3.9811	32319	1634.36	32360.3	2.89496	229.798
56	3.1623	32487.2	1858.76	32540.3	3.27461	232.293
57	2.5119	32741.1	2106.93	32808.8	3.68198	234.818
58	1.9953	32952.6	2391.48	33039.2	4.15087	237.433
59	1.5849	33208.1	2722.53	33319.6	4.68685	240.178
60	1.2589	33475.5	3132.45	33621.8	5.34585	243.023
61	1	33845.6	3530.62	34029.2	5.9553	248.083
62	0.79433	34281.6	4010.48	34515.4	6.6725	251.443
63	0.63096	34662.3	4549.74	34959.6	7.47784	254.929
64	0.50119	35168.8	5193.71	35550.2	8.4007	258.779
65	0.39811	35695.3	5957.21	36189	9.4748	262.999
66	0.31623	36339.8	6792.53	36969.2	10.5874	267.829
67	0.25119	36887.5	7806.13	37704.4	11.9487	273.264
68	0.19953	37587.7	8934.82	38635	13.3714	279.509
69	0.15849	38377.3	10401.9	39762	15.1652	286.744
70	0.12589	39415.6	11967.6	41192.4	16.8896	295.329
71	0.1	40009.5	13894.2	42353.3	19.1507	305.564

File: Z_p22_1.txt
Index	Frequency (Hz)	Z' (Ω)	-Z'' (Ω)	Z (Ω)	-Phase (°)	Time (s)
1	1000000	2284.02	6531.97	6919.79	70.7269	133.54
2	794330	3823.74	7385.5	8316.65	62.6278	134.98
3	630960	5678.66	8660.51	10356.2	56.7473	136.375
4	501190	8138.64	9946.45	12851.8	50.7084	137.875
5	398110	11099.7	11136.9	15723.7	45.0959	143.755
6	316230	13416.7	10796.7	17221.4	38.8244	144.98
7	251190	15133	10345.9	18331.5	34.3591	149.931
8	199530	17142.5	9722.83	19707.8	29.561	151.241
9	158490	18713.1	9033.53	20779.4	25.7684	152.636
10	125890	20226.3	8327.53	21873.5	22.3779	153.931
11	100000	21456.3	7548.87	22745.5	19.3832	155.376
12	79433	22535.2	6760.33	23527.4	16.6987	156.681
13	63096	23706.8	6209.52	24506.6	14.6777	158.086
14	50119	24248.8	5361.22	24834.4	12.4671	159.416
15	39811	24878.1	4644.04	25307.8	10.5738	160.766
16	31623	25440.8	3986.28	25751.2	8.90519	162.106
17	25119	25805.7	3547.74	26048.5	7.82788	163.451
18	19953	26169.2	3141.92	26357.1	6.84627	164.786
19	15849	26529.9	2743.74	26671.4	5.90457	166.086
20	12589	26795.1	2378.61	26900.5	5.07286	167.406
21	10000	26917.6	2108.61	27000.1	4.47916	169.676
22	7943.3	27127.6	1861.12	27191.4	3.92468	170.901
23	6309.6	27302.2	1641.9	27351.5	3.44151	172.201
24	5011.9	27469.9	1474.52	27509.4	3.07257	173.516
25	3981.1	27613.9	1309.78	27645	2.71561	174.851
26	3162.3	27738.9	1188.54	27764.3	2.45348	176.201
27	2511.9	27878.4	1082.22	27899.4	2.22307	177.561
28	1995.3	27981.9	1001.93	27999.9	2.05069	178.906
29	1584.9	28088.2	912.794	28103	1.86131	180.081
30	1258.9	28199.1	849.749	28211.9	1.72602	181.366
31	1000	28300.1	789.796	28311.1	1.59859	182.706
32	794.33	28397.5	739.599	28407.2	1.4919	184.146
33	630.96	28488.8	693.724	28497.3	1.39492	185.476
34	501.19	28571.5	652.988	28579	1.30924	186.826
35	398.11	28666	614.487	28672.6	1.22801	188.031
36	316.23	28745	585.762	28750.9	1.16741	189.366
37	251.19	28839.3	551.323	28844.6	1.09519	190.706
38	199.53	28906	523.558	28910.7	1.03765	191.916
39	158.49	28986.2	498.897	28990.5	0.986052	193.311
40	125.89	29040.6	474.882	29044.5	0.936837	194.731
41	100	29110.2	449.392	29113.6	0.88444	196.056
42	79.433	29175.4	433.424	29178.6	0.851113	197.551
43	63.096	29235.1	387.838	29237.7	0.760052	199.031
44	50.119	29284.6	420.858	29287.6	0.82336	200.401
45	39.811	29337.3	394.018	29339.9	0.769472	209.542
46	31.623	29385.3	385.419	29387.9	0.75145	211.217
47	25.119	29445.9	384.329	29448.4	0.747785	212.827
48	19.953	29484.7	394.945	29487.3	0.767428	214.722
49	15.849	29522.1	406.962	29524.9	0.789772	216.687
50	12.589	29572.8	424.685	29575.9	0.822748	218.722
51	10	29622	441.095	29625.3	0.853117	221.047
52	7.9433	29677.1	472.401	29680.9	0.911959	223.347
53	6.3096	29713.1	513.723	29717.6	0.990513	225.737
54	5.0119	29771.9	566.795	29777.3	1.09066	228.102
55	3.9811	29826.7	628.287	29833.3	1.20673	230.502
56	3.1623	29907.1	698.821	29915.3	1.33855	233.022
57	2.5119	29977.6	822.766	29988.9	1.57215	235.592
58	1.9953	30048.6	893.616	30061.9	1.70342	238.237
59	1.5849	30151.2	1022.74	30168.5	1.94276	240.972
60	1.2589	30239.3	1173.88	30262.1	2.22309	243.877
61	1	30315.1	1365.51	30345.9	2.57908	248.937
62	0.79433	30454.5	1575.33	30495.2	2.96113	252.167
63	0.63096	30605.1	1827.91	30659.7	3.41796	255.678
64	0.50119	30755.3	2125.98	30828.7	3.95432	259.488
65	0.39811	30926.4	2477.04	31025.5	4.5793	263.708
66	0.31623	31124.7	2933.7	31262.6	5.38459	268.513
67	0.25119	31422.1	3418.61	31607.6	6.20914	273.923
68	0.19953	31676.5	4014.06	31929.8	7.22205	280.183
69	0.15849	31962.9	4708.37	32307.8	8.37983	287.423
70	0.12589	32188.6	5652.84	32681.2	9.96049	295.968
71	0.1	32700	6697.72	33378.9	11.5754	306.183

File: Z_p23_1.txt
Index	Frequency (Hz)	Z' (Ω)	-Z'' (Ω)	Z (Ω)	-Phase (°)	Time (s)
1	1000000	1826.12	6959.65	7195.24	75.2978	130.422
2	794330	3144.76	8467.16	9032.29	69.6246	131.787
3	630960	4991.76	10222.9	11376.5	63.9742	133.217
4	501190	7183.02	12327.7	14267.7	59.7717	134.752
5	398110	10398.8	14838.3	18119.3	54.9769	140.702
6	316230	13897.9	15610.1	20900.4	48.3208	142.037
7	251190	16825.5	16050.9	23253.6	43.6504	146.973
8	199530	19979.1	16098	25657.6	38.8598	148.308
9	158490	22758.3	15926	27777.3	34.9839	149.703
10	125890	25584.7	15670.7	30002.5	31.4877	150.998
11	100000	28139.4	15163.3	31964.9	28.3186	152.408
12	79433	30662.8	14685.2	33997.9	25.5909	153.718
13	63096	32747.6	14023.6	35624	23.1822	155.128
14	50119	35132.9	13407.2	37604.2	20.8875	156.543
15	39811	37190.8	12384.5	39198.6	18.4178	157.863
16	31623	38984.8	11470.6	40637.3	16.3956	159.188
17	25119	40578.9	10425	41896.6	14.408	160.518
18	19953	42077.2	9817.64	43207.4	13.1335	161.828
19	15849	43438.9	8670.83	44295.9	11.2884	163.158
20	12589	44625.2	7917.48	45322.2	10.0608	164.498
21	10000	45527.3	7084.37	46075.2	8.8447	165.863
22	7943.3	46414.2	6321.06	46842.6	7.75529	167.248
23	6309.6	47135.8	5632.32	47471.1	6.81404	168.633
24	5011.9	47765.2	5001.02	48026.3	5.97709	170.003
25	3981.1	48376.9	4498.06	48585.6	5.31206	171.348
26	3162.3	48796.1	4005.68	48960.2	4.69291	172.693
27	2511.9	49221.7	3592.89	49352.7	4.17485	174.078
28	1995.3	49655.8	3222.63	49760.2	3.71326	175.423
29	1584.9	49963.3	2927.47	50049	3.35326	176.758
30	1258.9	50275.1	2680.75	50346.5	3.05221	178.053
31	1000	50549.4	2459.99	50609.2	2.78611	179.378
32	794.33	50854.9	2259.27	50905	2.54374	180.808
33	630.96	51108.8	2099.6	51151.9	2.35245	182.118
34	501.19	51353.8	1961.28	51391.2	2.18715	183.443
35	398.11	51566.7	1862.99	51600.3	2.06907	184.768
36	316.23	51791.1	1774.83	51821.5	1.9627	186.128
37	251.19	52002.9	1698.54	52030.7	1.87075	187.523
38	199.53	52216.7	1664.53	52243.2	1.82582	188.758
39	158.49	52408.7	1630.57	52434	1.78205	190.143
40	125.89	52633.9	1629.74	52659.1	1.77352	191.578
41	100	52812.8	1644.09	52838.4	1.78307	192.913
42	79.433	52981.4	1666.61	53007.6	1.80173	194.378
43	63.096	53084.5	1669.49	53110.8	1.80134	195.903
44	50.119	53441.4	1808.63	53472	1.93834	197.353
45	39.811	53634	1894.98	53667.5	2.02352	206.514
46	31.623	53844.8	2029.17	53883	2.1582	208.159
47	25.119	54076.3	2189.3	54120.6	2.31838	209.774
48	19.953	54337.2	2383	54389.5	2.51114	211.699
49	15.849	54647.9	2623.54	54710.9	2.74855	213.644
50	12.589	54924.5	2897.92	55000.9	3.02023	215.639
51	10	55300.6	3179.89	55391.9	3.29099	217.949
52	7.9433	55691.5	3555.85	55804.9	3.65332	220.294
53	6.3096	56118.6	3940.58	56256.8	4.01664	222.619
54	5.0119	56628.7	4360.79	56796.3	4.40347	225.054
55	3.9811	57138.9	4863.3	57345.5	4.86493	227.524
56	3.1623	57739.8	5413.87	57993	5.35658	229.969
57	2.5119	58272.6	5932.15	58573.7	5.81268	232.504
58	1.9953	58934.8	6742.49	59319.2	6.5266	235.199
59	1.5849	59762.8	7569.55	60240.3	7.21863	238.034
60	1.2589	60456.8	8597.19	61065	8.09342	240.909
61	1	61255.7	9685.37	62016.6	8.98488	246.009
62	0.79433	62265.6	11041	63236.9	10.0553	249.204
63	0.63096	63081.3	12742.1	64355.3	11.4198	252.724
64	0.50119	64206.4	14785.6	65886.9	12.9682	256.59
65	0.39811	65339.5	17378.1	67611	14.8939	260.805
66	0.31623	66880.8	20289.9	69890.7	16.8765	265.615
67	0.25119	68296.4	24128.2	72433.2	19.4576	271.035
68	0.19953	70058.5	28191.8	75518	21.92	277.435
69	0.15849	72302.4	33446.4	79663.6	24.8248	284.885
70	0.12589	75540.6	39840.6	85402.9	27.8075	293.47
71	0.1	78461.6	46175.4	91040.6	30.4772	303.735

File: Z_p24_1.txt
Index	Frequency (Hz)	Z' (Ω)	-Z'' (Ω)	Z (Ω)	-Phase (°)	Time (s)
1	1000000	1798.8	6230.41	6484.88	73.8959	130.638
2	794330	2934.9	7336.26	7901.54	68.1959	132.063
3	630960	4310.25	8899.5	9888.35	64.158	133.443
4	501190	6206.5	10604.2	12287	59.6602	134.963
5	398110	8743.2	12830.2	15526	55.7273	140.928
6	316230	11272.5	13828	17840.5	50.8133	142.273
7	251190	13892.5	14327.3	19956.7	45.8827	146.393
8	199530	16626.1	14592	22121.3	41.2721	147.709
9	158490	19303.4	14800.6	24324.4	37.4786	149.044
10	125890	21805.6	14880.3	26399	34.3098	150.334
11	100000	24266.8	14808.3	28428.2	31.3929	151.779
12	79433	26768.3	14600.1	30491.1	28.609	153.104
13	63096	29421	14050.9	32604.1	25.5282	154.439
14	50119	31473.9	13780.2	34358.4	23.6452	155.879
15	39811	33941.6	13268.7	36442.9	21.352	157.229
16	31623	35827.5	12426.1	37921.2	19.1281	158.564
17	25119	37713.4	11586.4	39453.1	17.0781	159.889
18	19953	39658.7	10898.7	41129	15.3663	161.234
19	15849	41128.5	9830.96	42287.2	13.4432	162.604
20	12589	42630.7	8892.82	43548.4	11.783	163.924
21	10000	43630.9	8227.79	44400	10.6793	165.289
22	7943.3	44693.2	7402.32	45302.1	9.40424	166.659
23	6309.6	45626.6	6634.77	46106.4	8.27366	168.044
24	5011.9	46439.7	5966.26	46821.4	7.32088	169.464
25	3981.1	47122.8	5335.17	47423.8	6.45944	170.849
26	3162.3	47694.1	4748.69	47930	5.68595	172.209
27	2511.9	48210.8	4269.67	48399.5	5.06105	173.539
28	1995.3	48675.7	3830.29	48826.2	4.49933	174.859
29	1584.9	49089.3	3473.16	49212	4.04704	176.134
30	1258.9	49458.9	3140.97	49558.5	3.63379	177.464
31	1000	49823	2857.7	49904.9	3.28272	178.854
32	794.33	50148.3	2634.69	50217.4	3.00745	180.329
33	630.96	50416.7	2429.83	50475.3	2.75923	181.694
34	501.19	50710.2	2264.05	50760.7	2.55637	183.074
35	398.11	50982.2	2119	51026.2	2.38004	184.329
36	316.23	51210	2002.44	51249.2	2.23926	185.709
37	251.19	51458.5	1917	51494.2	2.13347	187.084
38	199.53	51703	1853.75	51736.2	2.05339	188.429
39	158.49	51928.9	1804.4	51960.2	1.99008	189.839
40	125.89	52112.1	1762.7	52141.9	1.9373	191.259
41	100	52335.1	1768.79	52365	1.93571	192.669
42	79.433	52526.5	1769.89	52556.3	1.92986	194.139
43	63.096	52780.7	1703.32	52808.2	1.84839	195.674
44	50.119	52841.6	1854.15	52874.1	2.00961	197.214
45	39.811	53226.2	1919.86	53260.9	2.06575	206.36
46	31.623	53462.8	2028.11	53501.2	2.17247	208.02
47	25.119	53703.9	2132.5	53746.2	2.27394	209.65
48	19.953	53944.7	2312.18	53994.2	2.45432	211.635
49	15.849	54199.9	2485.64	54256.9	2.62577	213.63
50	12.589	54544.5	2699.32	54611.3	2.83317	215.665
51	10	54849.1	2983.56	54930.2	3.11357	217.975
52	7.9433	55181.5	3295.41	55279.8	3.41762	220.37
53	6.3096	55546.5	3663.52	55667.2	3.77342	222.755
54	5.0119	55982.3	4090.05	56131.5	4.17859	225.19
55	3.9811	56440.4	4553.76	56623.8	4.61279	227.69
56	3.1623	57011.2	5089.2	57237.9	5.10109	230.37
57	2.5119	57646.6	5710.8	57928.8	5.65759	232.96
58	1.9953	58260.2	6415.74	58612.4	6.28421	235.66
59	1.5849	58883.4	7242.59	59327.2	7.01209	238.415
60	1.2589	59639.9	8124.98	60190.8	7.75788	241.38
61	1	60415.7	9305.3	61128.1	8.75597	246.515
62	0.79433	61334.5	10565.9	62237.9	9.77427	249.715
63	0.63096	62317.4	12065.1	63474.6	10.9573	253.24
64	0.50119	63269.8	13913	64781.5	12.4019	257.116
65	0.39811	64514	16240	66526.7	14.1294	261.451
66	0.31623	65622	18963.3	68307.1	16.1181	266.221
67	0.25119	67476.3	22574.1	71152.2	18.4976	271.711
68	0.19953	69148.3	26644	74103.9	21.0725	277.986
69	0.15849	71467	31331.2	78033.2	23.6727	285.271
70	0.12589	73885.5	37065.1	82661.3	26.6409	294.806
71	0.1	76089.3	43313.9	87553.8	29.6507	305.096

File: Z_p25_1.txt
Index	Frequency (Hz)	Z' (Ω)	-Z'' (Ω)	Z (Ω)	-Phase (°)	Time (s)
1	1000000	1679.2	7083.5	7279.81	76.6638	130.644
2	794330	3080.78	8537.58	9076.42	70.1581	132.014
3	630960	4835.74	10388.5	11458.9	65.0385	133.564
4	501190	7084.14	13169.9	14954.3	61.7241	135.104
5	398110	10095.3	15837.4	18781.3	57.485	141.119
6	316230	13088.2	16940.1	21407.2	52.3098	142.479
7	251190	16442.8	17582.8	24073.3	46.919	146.56
8	199530	20058	17984.2	26939.9	41.8797	147.89
9	158490	23251.6	18005	29407.7	37.7526	149.31
10	125890	26391.4	18154.7	32032.8	34.5242	150.67
11	100000	29405	18021.3	34488	31.5027	152.11
12	79433	32424.2	17798.3	36987.9	28.7632	153.41
13	63096	34870.9	16954	38773.9	25.9287	154.81
14	50119	38138.4	16743	41651.7	23.7018	156.21
15	39811	40906.8	15915.2	43893.8	21.259	157.55
16	31623	43635	14781.2	46070.6	18.7136	158.9
17	25119	45578.9	13861.5	47640.1	16.9156	160.255
18	19953	47770.6	12737.1	49439.5	14.9295	161.63
19	15849	49563.8	11969	50988.5	13.5763	162.995
20	12589	51234.8	10843.7	52369.8	11.9502	164.35
21	10000	52576.6	9959.36	53511.6	10.7262	166.665
22	7943.3	53886	9046.73	54640.1	9.53031	167.9
23	6309.6	55022.6	8129.29	55619.9	8.40434	169.27
24	5011.9	55936.7	7339.36	56416.2	7.47498	170.645
25	3981.1	56835.4	6631.9	57221.1	6.65552	172.025
26	3162.3	57636.7	5927.49	57940.7	5.87179	173.375
27	2511.9	58304.1	5360.42	58550	5.25295	174.77
28	1995.3	58912.3	4872.49	59113.4	4.72803	176.145
29	1584.9	59455.5	4416.78	59619.4	4.24853	177.41
30	1258.9	59955.8	4090.35	60095.2	3.90283	178.695
31	1000	60391.2	3706.64	60504.9	3.51225	180.01
32	794.33	60776.4	3424.28	60872.8	3.22476	181.48
33	630.96	61204	3197.92	61287.4	2.991	182.84
34	501.19	61530.5	3021.47	61604.6	2.81126	184.21
35	398.11	61885	2864.89	61951.3	2.65054	185.395
36	316.23	62207.4	2772.56	62269.1	2.55196	186.72
37	251.19	62550.3	2689.59	62608.1	2.46214	188.12
38	199.53	62848.4	2661.65	62904.8	2.42504	189.5
39	158.49	63142.3	2655.31	63198.1	2.40803	190.925
40	125.89	63449.1	2691.9	63506.1	2.42938	192.44
41	100	63828.9	2745.52	63888	2.46299	193.92
42	79.433	64093.4	2865.59	64157.5	2.55996	195.35
43	63.096	64443.7	3396.64	64533.2	3.0171	196.885
44	50.119	64564.3	3533.51	64660.9	3.13259	198.37
45	39.811	65122	3458.21	65213.8	3.03975	207.506
46	31.623	65538	3791.4	65647.6	3.31089	209.251
47	25.119	65967.1	4134.67	66096.5	3.58648	210.886
48	19.953	66377.1	4605.37	66536.7	3.96893	212.816
49	15.849	66910.1	5101.14	67104.3	4.35972	214.811
50	12.589	67502.4	5793.44	67750.5	4.90543	216.811
51	10	68117.8	6490.11	68426.2	5.44259	219.166
52	7.9433	68809.9	7312.72	69197.4	6.0663	221.521
53	6.3096	69681.1	8291.53	70172.6	6.78586	223.886
54	5.0119	70621.5	9410.03	71245.6	7.58973	226.261
55	3.9811	71750.9	10676.4	72540.9	8.4634	228.741
56	3.1623	72992.8	12097.5	73988.6	9.41043	231.351
57	2.5119	74380.3	13640.5	75620.7	10.3919	233.901
58	1.9953	76373.2	15562.2	77942.6	11.5172	236.606
59	1.5849	77878.4	17629.9	79849	12.7555	239.421
60	1.2589	79794.5	19989	82260.1	14.0635	242.346
61	1	82009.9	22665.5	85084.3	15.4495	247.526
62	0.79433	84619.2	25710.7	88438.9	16.9009	250.631
63	0.63096	87487.6	29029.2	92177.9	18.3563	254.231
64	0.50119	90396.3	33069.1	96255.2	20.0937	258.077
65	0.39811	94024.1	37678.5	101293	21.8376	262.357
66	0.31623	97745.4	43343.3	106924	23.914	267.147
67	0.25119	102813	49508.4	114112	25.7127	272.587
68	0.19953	108078	56862.1	122124	27.7497	278.792
69	0.15849	113965	65060.7	131228	29.7214	286.122
70	0.12589	119874	75179.8	141499	32.0941	294.752
71	0.1	128731	87470.9	155637	34.1956	305.042