Folder: Streamlit_cement_impedance/data/20200504 (part 2)

File: Z_p35_1.txt
Index	Frequency (Hz)	Z' (Ω)	-Z'' (Ω)	Z (Ω)	-Phase (°)	Time (s)
1	1000000	2521.67	1589.92	2981.05	32.2315	67.234
2	794330	2730.22	1445.87	3089.43	27.9048	68.649
3	630960	2986.18	1343.88	3274.64	24.2293	70.0091
4	501190	3230.35	1242.66	3461.12	21.0408	71.4891
5	398110	3464.98	1132.33	3645.31	18.097	72.8691
6	316230	3656.28	1032.7	3799.33	15.7721	74.2141
7	251190	3753.98	879.278	3855.58	13.1825	75.4742
8	199530	3901.57	795.443	3981.83	11.5234	76.8642
9	158490	4024.21	710.375	4086.42	10.011	78.2392
10	125890	4121.25	627.873	4168.81	8.6624	79.5142
11	100000	4200.47	552.218	4236.62	7.48947	80.8743
12	79433	4264.97	484.602	4292.41	6.48236	82.1693
13	63096	4317.6	424.328	4338.4	5.61292	83.5193
14	50119	4363.3	371.73	4379.11	4.86953	84.9743
15	39811	4400.72	325.476	4412.74	4.22989	86.3594
16	31623	4431.28	285.195	4440.45	3.68245	87.6444
17	25119	4456.91	253.841	4464.14	3.25973	88.9094
18	19953	4483.85	226.599	4489.57	2.89308	90.1944
19	15849	4503.75	204.091	4508.37	2.59463	91.4745
20	12589	4524.73	185.549	4528.54	2.34826	92.7345
21	10000	4542.31	170.042	4545.49	2.14387	94.0495
22	7943.3	4561.27	157.739	4564	1.98062	95.3295
23	6309.6	4579.61	147.443	4581.99	1.84403	96.6596
24	5011.9	4593.46	139.74	4595.59	1.74249	97.9246
25	3981.1	4609.36	132.656	4611.27	1.6485	99.2096
26	3162.3	4626.48	127.502	4628.23	1.57863	100.49
27	2511.9	4641.18	123.673	4642.83	1.5264	101.78
28	1995.3	4657.15	120.53	4658.71	1.48252	103.13
29	1584.9	4675.13	118.592	4676.64	1.45308	104.35
30	1258.9	4689.71	117.15	4691.18	1.43096	105.615
31	1000	4702.93	116.454	4704.38	1.41847	106.895
32	794.33	4718.49	117.024	4719.95	1.42071	108.265
33	630.96	4734.2	118.02	4735.67	1.42804	109.655
34	501.19	4749.36	120.372	4750.88	1.45185	110.935
35	398.11	4765.95	123.598	4767.56	1.48555	112.185
36	316.23	4781.69	128.045	4783.41	1.53391	113.46
37	251.19	4797.27	133.74	4799.13	1.5969	114.785
38	199.53	4813.68	140.663	4815.73	1.67379	116.055
39	158.49	4828.7	149.581	4831.02	1.77431	117.36
40	125.89	4848.8	159.486	4851.42	1.88388	118.715
41	100	4868.5	171.16	4871.5	2.0135	120.045
42	79.433	4886.47	185.473	4889.99	2.1737	121.415
43	63.096	4912.8	200.176	4916.87	2.33327	122.87
44	50.119	4937.28	219.141	4942.14	2.5414	124.315
45	39.811	4966.67	238.865	4972.41	2.75344	133.475
46	31.623	4998.5	261.855	5005.36	2.99879	135.09
47	25.119	5030.99	286.467	5039.14	3.25893	136.695
48	19.953	5066.19	315.73	5076.02	3.56612	138.555
49	15.849	5103.41	347.319	5115.22	3.89334	140.455
50	12.589	5146.41	382.969	5160.64	4.25581	142.44
51	10	5192.75	423.834	5210.02	4.66616	144.705
52	7.9433	5241.9	470.135	5262.94	5.12502	147.01
53	6.3096	5295.34	521.892	5320.99	5.62872	149.306
54	5.0119	5350.2	582.328	5381.8	6.21175	151.686
55	3.9811	5406.75	656.131	5446.42	6.91924	154.071
56	3.1623	5469.43	741.214	5519.43	7.71767	156.561
57	2.5119	5540.11	843.681	5603.98	8.65882	159.146
58	1.9953	5607.99	967.597	5690.85	9.78937	161.801
59	1.5849	5690.17	1114.24	5798.24	11.0794	164.541
60	1.2589	5768.28	1293.19	5911.47	12.6362	167.411
61	1	5863.32	1520.47	6057.26	14.5376	170.706
62	0.79433	5978.78	1774.59	6236.59	16.5317	173.996
63	0.63096	6085.04	2105.62	6439.05	19.0873	177.496
64	0.50119	6204.61	2483.8	6683.3	21.817	181.236
65	0.39811	6361.36	2985.8	7027.23	25.1437	185.461
66	0.31623	6512.51	3573.63	7428.57	28.7551	190.201
67	0.25119	6738.83	4345.99	8018.69	32.8187	195.686
68	0.19953	6966.39	5243.68	8719.34	36.9692	201.907
69	0.15849	7280.8	6317.58	9639.6	40.9483	209.132
70	0.12589	7560.06	7553.95	10687.2	44.9769	217.632
71	0.1	7919.45	9297.18	12212.9	49.5752	227.732

File: Z_p35_2.txt
Index	Frequency (Hz)	Z' (Ω)	-Z'' (Ω)	Z (Ω)	-Phase (°)	Time (s)
1	1000000	2519.33	1596.35	2982.51	32.36	272.12
2	794330	2735.04	1448.68	3095.02	27.9089	273.41
3	630960	2986.59	1343.9	3275.02	24.2267	274.79
4	501190	3224.11	1258.27	3460.94	21.3191	276.265
5	398110	3469.04	1137.43	3650.75	18.1533	277.7
6	316230	3660.8	1036.85	3804.8	15.8138	279.055
7	251190	3756.1	881.295	3858.1	13.2045	280.36
8	199530	3908.93	796.416	3989.24	11.516	281.735
9	158490	4032.71	711.58	4095.01	10.007	283.135
10	125890	4129.33	630.062	4177.13	8.67539	284.38
11	100000	4208.51	554.206	4244.84	7.50194	285.765
12	79433	4273.33	486.335	4300.92	6.49272	287.03
13	63096	4328.44	425.961	4349.35	5.62038	288.385
14	50119	4371.88	372.834	4387.75	4.87439	289.77
15	39811	4408.21	326.538	4420.29	4.23644	291.11
16	31623	4439.34	286.031	4448.54	3.68653	293.255
17	25119	4468.6	254.299	4475.83	3.25708	294.52
18	19953	4491	227.767	4496.77	2.90334	295.8
19	15849	4513.46	204.91	4518.11	2.59942	297.1
20	12589	4534.19	186.08	4538.01	2.35006	298.36
21	10000	4552.93	170.8	4556.14	2.1484	299.665
22	7943.3	4568.78	158.106	4571.52	1.98197	300.98
23	6309.6	4587.18	147.914	4589.56	1.84687	302.33
24	5011.9	4602.87	139.846	4605	1.74024	303.695
25	3981.1	4622.03	133.071	4623.94	1.64913	305.03
26	3162.3	4636.32	127.649	4638.08	1.57709	306.395
27	2511.9	4652.54	123.81	4654.19	1.52435	307.7
28	1995.3	4666.81	120.782	4668.37	1.48255	309.015
29	1584.9	4682.09	118.568	4683.59	1.45063	310.24
30	1258.9	4697.88	116.941	4699.33	1.42593	311.44
31	1000	4713.58	116.677	4715.02	1.41798	312.74
32	794.33	4730.62	117.202	4732.07	1.41922	314.18
33	630.96	4745.55	118.538	4747.03	1.43088	315.525
34	501.19	4760	120.318	4761.52	1.44795	316.815
35	398.11	4774.3	123.691	4775.9	1.48407	318.085
36	316.23	4792.02	128.246	4793.73	1.533	319.265
37	251.19	4807.62	134.036	4809.49	1.59698	320.551
38	199.53	4821.81	141.345	4823.88	1.67907	321.866
39	158.49	4841.44	150.418	4843.78	1.77954	323.191
40	125.89	4858.61	160.417	4861.26	1.89105	324.571
41	100	4878.18	171.649	4881.19	2.01524	325.891
42	79.433	4897.65	186.058	4901.18	2.17558	327.241
43	63.096	4924.56	201.338	4928.67	2.34121	328.666
44	50.119	4949.34	219.93	4954.22	2.54433	330.116
45	39.811	4977.43	238.596	4983.14	2.74441	340.156
46	31.623	5007.79	260.846	5014.58	2.98173	341.681
47	25.119	5040.37	286.6	5048.52	3.25439	343.236
48	19.953	5077.18	317.168	5087.07	3.57458	345.061
49	15.849	5115.93	349.369	5127.85	3.90669	347.016
50	12.589	5156.61	384.692	5170.94	4.26646	349.071
51	10	5205.7	426.143	5223.11	4.67985	351.376
52	7.9433	5254.11	469.789	5275.07	5.10944	353.626
53	6.3096	5305.07	523.666	5330.85	5.63743	355.911
54	5.0119	5361.53	584.621	5393.31	6.22294	358.286
55	3.9811	5417.5	655.701	5457.03	6.90117	360.701
56	3.1623	5482.31	742.255	5532.33	7.71044	363.171
57	2.5119	5554.05	846.162	5618.14	8.66243	365.741
58	1.9953	5621.95	969.197	5704.88	9.78137	368.411
59	1.5849	5697.05	1116.07	5805.34	11.0841	371.196
60	1.2589	5783.67	1298.43	5927.63	12.6531	374.002
61	1	5879.96	1519.85	6073.21	14.4926	378.997
62	0.79433	5989.08	1789.46	6250.7	16.6355	382.097
63	0.63096	6089.85	2095.42	6440.27	18.9875	385.557
64	0.50119	6222.34	2510.96	6709.87	21.976	389.327
65	0.39811	6353.77	3008.52	7030.05	25.3377	393.512
66	0.31623	6552.92	3611.47	7482.21	28.8602	398.317
67	0.25119	6706.32	4345.57	7991.16	32.9425	403.712
68	0.19953	6938.95	5212.31	8678.55	36.9127	409.982
69	0.15849	7207.47	6321.57	9586.96	41.2536	417.292
70	0.12589	7611.08	7674.33	10808.5	45.2371	425.832
71	0.1	7941.26	9178.28	12136.9	49.1329	435.973

File: Z_p35_3.txt
Index	Frequency (Hz)	Z' (Ω)	-Z'' (Ω)	Z (Ω)	-Phase (°)	Time (s)
1	1000000	2526.55	1595.87	2988.35	32.2781	549.914
2	794330	2741.92	1457.23	3105.1	27.989	552.164
3	630960	2997.64	1347.07	3286.4	24.198	554.239
4	501190	3239.67	1252.51	3473.37	21.1374	556.349
5	398110	3477.55	1141.28	3660.04	18.1691	558.619
6	316230	3670.11	1039.84	3814.58	15.8189	560.744
7	251190	3768.91	885.325	3871.5	13.2192	562.824
8	199530	3921.29	801.146	4002.29	11.547	565.044
9	158490	4042.87	715.645	4105.72	10.0382	567.199
10	125890	4141.72	633.386	4189.87	8.69479	569.209
11	100000	4220.59	556.82	4257.16	7.5156	571.404
12	79433	4285.84	488.869	4313.63	6.50739	573.504
13	63096	4341.87	428.081	4362.92	5.63081	575.614
14	50119	4385.9	375.199	4401.92	4.88956	577.739
15	39811	4425.18	328.279	4437.34	4.24268	580.029
16	31623	4455.5	287.868	4464.79	3.69671	582.079
17	25119	4480.86	255.682	4488.15	3.2658	584.149
18	19953	4506.34	228.732	4512.14	2.90572	586.384
19	15849	4528.64	205.961	4533.32	2.60399	588.504
20	12589	4548.71	186.942	4552.55	2.3534	590.474
21	10000	4567.96	171.499	4571.18	2.1501	592.484
22	7943.3	4586.29	158.952	4589.04	1.98497	594.554
23	6309.6	4605.27	148.809	4607.68	1.85074	596.694
24	5011.9	4622.19	140.393	4624.32	1.73975	598.744
25	3981.1	4638.03	133.889	4639.96	1.65354	600.85
26	3162.3	4651.48	128.567	4653.26	1.58326	602.905
27	2511.9	4668.96	124.461	4670.62	1.52697	604.915
28	1995.3	4685.37	121.517	4686.94	1.48565	606.925
29	1584.9	4700.72	119.281	4702.23	1.45357	608.915
30	1258.9	4716.82	118.023	4718.29	1.43334	611.035
31	1000	4729.1	117.331	4730.55	1.42124	613.12
32	794.33	4746.78	117.745	4748.24	1.42094	615.195
33	630.96	4762.88	119.102	4764.37	1.43246	617.275
34	501.19	4778.62	121.514	4780.17	1.45665	619.505
35	398.11	4793.4	124.331	4795.02	1.4858	621.465
36	316.23	4809.91	129.236	4811.64	1.53909	623.595
37	251.19	4825.36	134.703	4827.24	1.59903	625.635
38	199.53	4840.87	142.296	4842.96	1.68371	628.065
39	158.49	4859.27	150.729	4861.61	1.77668	630.12
40	125.89	4874.57	160.854	4877.23	1.88999	632.255
41	100	4895.2	172.553	4898.24	2.0188	634.345
42	79.433	4917.04	186.687	4920.58	2.17433	636.515
43	63.096	4940.84	203.145	4945.01	2.35442	638.68
44	50.119	4969.73	221.733	4974.67	2.55466	640.95
45	39.811	4993.69	240.627	4999.49	2.75873	650.695
46	31.623	5027.18	263.502	5034.09	3.00044	653.055
47	25.119	5060.54	289.032	5068.79	3.26889	655.311
48	19.953	5096.25	319.134	5106.23	3.58326	657.871
49	15.849	5137.69	350.653	5149.64	3.90444	660.506
50	12.589	5182.12	386.808	5196.53	4.2688	663.186
51	10	5225.23	427.591	5242.69	4.67821	666.181
52	7.9433	5274.32	473.963	5295.57	5.13495	669.186
53	6.3096	5330.3	527.09	5356.29	5.64738	672.291
54	5.0119	5383.02	588.676	5415.11	6.24095	675.546
55	3.9811	5447.03	661.861	5487.09	6.92797	678.676
56	3.1623	5506.01	746.676	5556.41	7.72283	681.851
57	2.5119	5573.72	848.671	5637.96	8.65753	685.091
58	1.9953	5646.82	975.795	5730.51	9.80413	688.616
59	1.5849	5725.48	1124.25	5834.82	11.1092	692.081
60	1.2589	5815.3	1310.39	5961.11	12.6986	695.681
61	1	5901.1	1523.93	6094.7	14.48	699.666
62	0.79433	6011.27	1793.5	6273.11	16.6128	703.551
63	0.63096	6134.78	2105.46	6486.02	18.9422	707.782
64	0.50119	6253.64	2494.67	6732.86	21.7478	712.582
65	0.39811	6383.8	2993.71	7050.9	25.1244	717.472
66	0.31623	6585.67	3607.07	7508.79	28.7102	723.032
67	0.25119	6796.94	4329.88	8058.92	32.4985	729.317
68	0.19953	6977.13	5252.36	8733.13	36.9723	736.322
69	0.15849	7247.38	6304.48	9605.78	41.0199	744.242
70	0.12589	7565.95	7650	10759.5	45.3165	753.452
71	0.1	8018.44	9327.64	12300.4	49.3162	764.363

File: Z_p36_1.txt
Index	Frequency (Hz)	Z' (Ω)	-Z'' (Ω)	Z (Ω)	-Phase (°)	Time (s)
1	1000000	2914.91	1838.01	3446.01	32.2336	79.0692
2	794330	3149.54	1639.35	3550.64	27.4973	80.5143
3	630960	3441.88	1497.04	3753.35	23.5066	81.8943
4	501190	3704.89	1380.43	3953.71	20.4352	83.3643
5	398110	3986.55	1241.52	4175.4	17.298	85.7694
6	316230	4191.67	1124.66	4339.93	15.0192	87.0894
7	251190	4288.12	948.706	4391.81	12.4752	89.3244
8	199530	4447.94	854.467	4529.27	10.8743	90.6344
9	158490	4582.05	760.284	4644.69	9.42107	92.1145
10	125890	4683.22	671.087	4731.06	8.15474	93.4145
11	100000	4764.76	588.903	4801.02	7.04577	94.8095
12	79433	4835.24	515.912	4862.69	6.09031	96.1245
13	63096	4891.37	451.027	4912.12	5.26827	97.5246
14	50119	4937.1	394.305	4952.82	4.56628	98.9196
15	39811	4977.83	344.407	4989.73	3.95789	100.215
16	31623	5007.51	301.113	5016.56	3.44118	101.54
17	25119	5034.51	267.09	5041.59	3.0368	102.835
18	19953	5061.81	238.058	5067.41	2.69265	104.165
19	15849	5083.71	213.732	5088.2	2.40744	105.595
20	12589	5104.67	193.541	5108.34	2.1713	106.875
21	10000	5123.99	176.49	5127.02	1.9727	108.18
22	7943.3	5144.09	163.232	5146.68	1.8175	109.545
23	6309.6	5160.92	151.799	5163.16	1.68476	110.935
24	5011.9	5174.89	142.082	5176.84	1.57273	112.235
25	3981.1	5193.72	134.569	5195.46	1.4842	113.56
26	3162.3	5210.8	128.121	5212.37	1.40849	114.8
27	2511.9	5226.07	122.84	5227.51	1.34651	116.105
28	1995.3	5241.79	118.763	5243.13	1.29793	117.44
29	1584.9	5256	115.139	5257.26	1.25493	118.665
30	1258.9	5272.79	112.614	5273.99	1.22351	119.915
31	1000	5283.69	110.146	5284.84	1.19424	121.225
32	794.33	5299.94	109.169	5301.07	1.18002	122.71
33	630.96	5313.68	108.874	5314.79	1.17379	124.04
34	501.19	5326.16	109.727	5327.29	1.18021	125.38
35	398.11	5340.83	111.614	5342	1.19721	126.63
36	316.23	5353.51	114.581	5354.74	1.22611	127.955
37	251.19	5367.9	119.092	5369.22	1.27095	129.415
38	199.53	5380.87	124.686	5382.32	1.32742	130.78
39	158.49	5395.83	131.238	5397.43	1.39328	132.09
40	125.89	5413.4	140.448	5415.22	1.48618	133.455
41	100	5425.12	150.638	5427.21	1.59051	134.85
42	79.433	5444.77	163.247	5447.21	1.71735	136.33
43	63.096	5466.77	176.922	5469.63	1.85363	137.835
44	50.119	5486.02	193.891	5489.45	2.02415	139.28
45	39.811	5510.27	212.839	5514.38	2.212	148.346
46	31.623	5535.4	233.619	5540.32	2.41671	149.936
47	25.119	5564.89	257.999	5570.87	2.65444	151.571
48	19.953	5595.82	287.732	5603.21	2.9435	153.481
49	15.849	5629.68	319.066	5638.71	3.2438	155.526
50	12.589	5663.43	355.235	5674.56	3.58914	157.526
51	10	5701.28	397.302	5715.11	3.9863	159.766
52	7.9433	5745.02	445.876	5762.3	4.43787	162.106
53	6.3096	5791.29	502.507	5813.05	4.9591	164.526
54	5.0119	5838.66	569.029	5866.33	5.56639	166.886
55	3.9811	5890.04	648.737	5925.66	6.2853	169.401
56	3.1623	5946.58	745.7	5993.16	7.14756	171.871
57	2.5119	6012.77	859.489	6073.89	8.13498	174.446
58	1.9953	6073.3	999.736	6155.03	9.34773	177.051
59	1.5849	6147.99	1164.31	6257.26	10.7237	179.741
60	1.2589	6231.15	1366.39	6379.2	12.3682	182.531
61	1	6320.73	1612.36	6523.14	14.3105	187.546
62	0.79433	6429.92	1913.93	6708.73	16.5761	190.681
63	0.63096	6529.72	2253.94	6907.79	19.0438	194.241
64	0.50119	6627.55	2720.05	7164.01	22.314	198.031
65	0.39811	6751.66	3256.5	7495.98	25.7492	202.352
66	0.31623	6902.12	3974.8	7964.82	29.9368	207.187
67	0.25119	7112.13	4770.58	8563.92	33.8524	212.607
68	0.19953	7346.58	5802.63	9361.77	38.3031	218.792
69	0.15849	7581.83	7058.62	10359	42.9533	226.137
70	0.12589	7794.56	8670.6	11659.1	48.0456	234.682
71	0.1	8255.82	10639.9	13467.2	52.191	244.937

File: Z_p36_2.txt
Index	Frequency (Hz)	Z' (Ω)	-Z'' (Ω)	Z (Ω)	-Phase (°)	Time (s)
1	1000000	2922.87	1832.22	3449.66	32.0818	372.312
2	794330	3163.56	1636.12	3561.6	27.347	373.718
3	630960	3442.14	1495.18	3752.85	23.4789	375.173
4	501190	3710.38	1376.51	3957.49	20.3542	376.708
5	398110	3983.86	1244.13	4173.61	17.3432	379.113
6	316230	4190.92	1125.28	4339.36	15.0297	380.438
7	251190	4291.16	948.22	4394.68	12.4604	382.763
8	199530	4451.72	853.662	4532.83	10.8553	384.088
9	158490	4579.91	761.121	4642.73	9.43557	385.483
10	125890	4681.58	670.148	4729.3	8.1463	386.813
11	100000	4765.8	589.334	4802.1	7.04936	388.188
12	79433	4834.16	516.307	4861.65	6.0963	389.488
13	63096	4890.34	451.75	4911.16	5.27778	390.893
14	50119	4940.39	394.626	4956.12	4.56695	392.403
15	39811	4978.12	344.619	4990.03	3.96008	393.678
16	31623	5010.88	301.314	5019.93	3.44116	394.958
17	25119	5035.43	266.903	5042.5	3.03413	396.258
18	19953	5062.3	238.446	5067.91	2.69677	397.563
19	15849	5085.77	214.207	5090.28	2.41181	398.848
20	12589	5104.32	193.535	5107.99	2.17138	400.168
21	10000	5126.6	177.296	5129.67	1.9807	401.478
22	7943.3	5146.2	163.03	5148.78	1.8145	402.793
23	6309.6	5163.1	151.983	5165.34	1.68609	404.138
24	5011.9	5181.64	142.662	5183.6	1.57709	405.438
25	3981.1	5196.74	134.516	5198.48	1.48275	406.818
26	3162.3	5212.29	128.07	5213.86	1.40752	408.078
27	2511.9	5227.04	122.838	5228.48	1.34624	409.403
28	1995.3	5242.68	118.497	5244.02	1.2948	410.738
29	1584.9	5258.1	114.947	5259.36	1.25234	412.008
30	1258.9	5273.29	111.701	5274.47	1.21348	413.253
31	1000	5287	110.448	5288.16	1.19676	414.563
32	794.33	5303.27	109.444	5304.4	1.18225	416.023
33	630.96	5313.12	109.297	5314.25	1.17848	417.343
34	501.19	5329.93	109.902	5331.07	1.18126	418.678
35	398.11	5344.95	111.728	5346.12	1.1975	419.973
36	316.23	5355.47	114.753	5356.7	1.2275	421.258
37	251.19	5372.02	119.219	5373.35	1.27133	422.613
38	199.53	5384.01	124.497	5385.45	1.32464	423.928
39	158.49	5398.92	132.108	5400.54	1.40171	425.268
40	125.89	5414.95	140.019	5416.76	1.48122	426.703
41	100	5428.81	150.803	5430.91	1.59116	428.049
42	79.433	5446.58	162.987	5449.02	1.71404	429.589
43	63.096	5468.95	177.002	5471.82	1.85373	431.064
44	50.119	5490.6	193.252	5494	2.0158	432.424
45	39.811	5514.3	213.374	5518.42	2.21594	441.514
46	31.623	5539.02	234.018	5543.96	2.41925	443.109
47	25.119	5567.07	256.851	5572.99	2.64162	444.769
48	19.953	5597.88	288.097	5605.29	2.94615	446.674
49	15.849	5632.44	319.548	5641.5	3.2471	448.619
50	12.589	5668	354.717	5679.09	3.58104	450.554
51	10	5707	396.617	5720.77	3.97547	452.899
52	7.9433	5751.33	446.032	5768.6	4.43457	455.154
53	6.3096	5794.64	502.085	5816.36	4.9521	457.459
54	5.0119	5842.72	570.634	5870.52	5.57815	459.904
55	3.9811	5895.71	648.679	5931.29	6.27874	462.309
56	3.1623	5951.66	746.216	5998.25	7.14643	464.864
57	2.5119	6011.26	860.01	6072.47	8.14186	467.444
58	1.9953	6079.36	997.821	6160.7	9.321	469.984
59	1.5849	6150.51	1163.37	6259.57	10.711	472.814
60	1.2589	6233.54	1363.08	6380.83	12.3346	475.784
61	1	6319.47	1612.61	6521.98	14.3153	481.084
62	0.79433	6432.21	1901.19	6707.3	16.4663	484.27
63	0.63096	6524.29	2270.73	6908.16	19.19	487.91
64	0.50119	6655.06	2716.84	7188.25	22.2071	491.67
65	0.39811	6776.87	3289.89	7533.22	25.8946	495.91
66	0.31623	6947.74	3962.02	7998.04	29.6944	500.76
67	0.25119	7084.5	4826.2	8572.18	34.264	506.24
68	0.19953	7278.19	5840.11	9331.61	38.744	512.475
69	0.15849	7528.06	7147.05	10380.4	43.5128	519.73
70	0.12589	7900.32	8724.79	11770.2	47.8391	528.3
71	0.1	8159.56	10559.5	13344.7	52.306	538.441

File: Z_p36_3.txt
Index	Frequency (Hz)	Z' (Ω)	-Z'' (Ω)	Z (Ω)	-Phase (°)	Time (s)
1	1000000	2933.98	1828.75	3457.25	31.9354	686.629
2	794330	3156.12	1640.62	3557.07	27.4663	688.825
3	630960	3444.94	1500.42	3757.51	23.5353	691.031
4	501190	3712.14	1376.85	3959.26	20.35	693.432
5	398110	3990.88	1245.5	4180.72	17.3324	695.678
6	316230	4197.39	1127.38	4346.16	15.0343	697.844
7	251190	4296.4	949.965	4400.17	12.4679	701.686
8	199530	4456.62	857.797	4538.42	10.8949	703.762
9	158490	4582.86	761.862	4645.75	9.43862	705.978
10	125890	4687.3	672.764	4735.33	8.16783	708.11
11	100000	4772.03	590.773	4808.46	7.05725	710.311
12	79433	4839.39	517.569	4866.98	6.10454	712.357
13	63096	4896.29	451.452	4917.05	5.26794	714.643
14	50119	4943.27	395.18	4959.04	4.57068	716.924
15	39811	4985.1	345.477	4997.06	3.96437	719.19
16	31623	5016.45	301.969	5025.53	3.44481	721.281
17	25119	5044.24	268.138	5051.36	3.04283	723.362
18	19953	5068.65	238.83	5074.27	2.69773	725.548
19	15849	5092.43	214.192	5096.93	2.4085	727.769
20	12589	5115.71	194.078	5119.39	2.17262	729.925
21	10000	5132.06	177.389	5135.12	1.97963	732.101
22	7943.3	5152.02	163.643	5154.62	1.81926	734.167
23	6309.6	5171.79	152.451	5174.04	1.68844	736.238
24	5011.9	5186.57	142.951	5188.54	1.57877	738.389
25	3981.1	5203.03	134.837	5204.78	1.48449	740.58
26	3162.3	5219.11	128.502	5220.69	1.41042	742.671
27	2511.9	5233.19	122.939	5234.63	1.34575	744.822
28	1995.3	5250.05	118.884	5251.4	1.2972	746.968
29	1584.9	5266.95	115.284	5268.21	1.2539	748.909
30	1258.9	5278.97	112.893	5280.18	1.2251	751.035
31	1000	5294.86	110.882	5296.02	1.19968	753.221
32	794.33	5307.27	109.41	5308.4	1.18099	755.372
33	630.96	5324.47	109.201	5325.59	1.17493	757.473
34	501.19	5339.78	110.09	5340.92	1.1811	759.579
35	398.11	5349.67	111.92	5350.84	1.1985	761.576
36	316.23	5365.53	114.47	5366.75	1.22218	763.552
37	251.19	5378.31	119.15	5379.63	1.26911	765.773
38	199.53	5392.7	124.625	5394.14	1.32387	767.959
39	158.49	5407.62	131.957	5409.23	1.39785	770.125
40	125.89	5422.32	140.307	5424.14	1.48225	772.206
41	100	5439.13	151.229	5441.23	1.59263	774.462
42	79.433	5456.12	162.753	5458.54	1.70859	776.613
43	63.096	5478.03	178.289	5480.93	1.8641	778.914
44	50.119	5498.21	193.27	5501.61	2.0132	781.07
45	39.811	5520.99	211.61	5525.04	2.19498	790.976
46	31.623	5545.6	233.755	5550.53	2.41367	793.372
47	25.119	5573.46	256.604	5579.36	2.63605	795.853
48	19.953	5605.06	287.138	5612.41	2.93261	798.479
49	15.849	5641.24	319.277	5650.27	3.23931	801.145
50	12.589	5676.62	354.516	5687.67	3.5736	803.966
51	10	5714.02	396.439	5727.75	3.96883	806.957
52	7.9433	5756.11	445.575	5773.33	4.42638	810.048
53	6.3096	5802.73	502.281	5824.43	4.94716	813.154
54	5.0119	5848.13	569.078	5875.76	5.55792	816.346
55	3.9811	5899.12	648.273	5934.64	6.27124	819.432
56	3.1623	5959.02	744.337	6005.33	7.1199	822.723
57	2.5119	6018.88	861.436	6080.21	8.145	826.004
58	1.9953	6083.05	995.613	6163.98	9.29519	829.4
59	1.5849	6162.77	1161.33	6271.23	10.6719	833.061
60	1.2589	6239.76	1362.17	6386.72	12.3147	836.632
61	1	6324.63	1618.91	6528.54	14.3577	840.633
62	0.79433	6433.44	1915.57	6712.57	16.581	844.689
63	0.63096	6545.83	2265.71	6926.86	19.0923	849.035
64	0.50119	6635.28	2702.96	7164.7	22.1641	853.586
65	0.39811	6774.02	3258.39	7516.94	25.6882	858.762
66	0.31623	6944.61	3987.45	8007.96	29.8635	864.408
67	0.25119	7136.45	4825.07	8614.54	34.0633	870.67
68	0.19953	7281.51	5835	9331	38.7067	877.716
69	0.15849	7589.5	7081.13	10379.9	43.0154	885.882
70	0.12589	7866.82	8643.16	11687.2	47.6922	895.258
71	0.1	8129.83	10601.6	13359.9	52.5171	906.244

File: Z_p37_1.txt
Index	Frequency (Hz)	Z' (Ω)	-Z'' (Ω)	Z (Ω)	-Phase (°)	Time (s)
1	1000000	3356.86	2368.66	4108.41	35.2074	26.1833
2	794330	3696.69	2127.48	4265.17	29.9208	27.5833
3	630960	4086.17	1979.59	4540.44	25.8484	28.9933
4	501190	4441.65	1844.82	4809.53	22.5553	30.4483
5	398110	4856.18	1698.21	5144.55	19.2748	31.9284
6	316230	5148.48	1560.4	5379.75	16.861	33.3184
7	251190	5304.29	1340.29	5471	14.1807	34.7084
8	199530	5534.98	1223.49	5668.59	12.4646	36.1634
9	158490	5720.52	1103.53	5825.99	10.9186	37.4435
10	125890	5874.28	982.899	5955.94	9.49888	38.7835
11	100000	6004.4	873.202	6067.56	8.27435	40.2185
12	79433	6111.8	772.976	6160.49	7.20808	41.5235
13	63096	6200.43	682.255	6237.85	6.27919	42.8986
14	50119	6276.55	602.568	6305.41	5.48376	44.1686
15	39811	6341.8	531.427	6364.03	4.79005	45.5786
16	31623	6395.18	468.09	6412.29	4.18625	46.8936
17	25119	6440.42	417.828	6453.96	3.71191	48.2337
18	19953	6481.99	374.89	6492.82	3.31005	49.5037
19	15849	6517.23	337.839	6525.98	2.96743	50.8087
20	12589	6554.16	307.425	6561.37	2.68551	52.1387
21	10000	6584.98	281.651	6591	2.44915	53.4538
22	7943.3	6616.57	260.069	6621.68	2.2509	54.7438
23	6309.6	6643.94	242.533	6648.36	2.09062	56.0888
24	5011.9	6671.91	228.159	6675.81	1.95858	57.3838
25	3981.1	6695.71	216.235	6699.2	1.8497	58.6739
26	3162.3	6722.2	207.252	6725.39	1.76593	59.9489
27	2511.9	6749.54	199.995	6752.51	1.69723	61.2439
28	1995.3	6774.33	194.135	6777.11	1.6415	62.5289
29	1584.9	6797.65	190.414	6800.32	1.60453	63.7589
30	1258.9	6821.91	187.435	6824.48	1.57383	65.064
31	1000	6846.7	186.741	6849.25	1.56233	66.384
32	794.33	6868.22	187.675	6870.78	1.56522	67.744
33	630.96	6892.64	189.871	6895.25	1.57792	69.009
34	501.19	6915.45	193.533	6918.16	1.60303	70.4141
35	398.11	6938.93	198.858	6941.78	1.64155	71.6991
36	316.23	6965.62	206.897	6968.69	1.70133	72.9941
37	251.19	6989.12	217.475	6992.5	1.78225	74.3641
38	199.53	7018.51	229.258	7022.26	1.87089	75.6892
39	158.49	7042.25	244.311	7046.49	1.98691	77.0242
40	125.89	7074.47	262.459	7079.33	2.12467	78.4192
41	100	7102.45	284.031	7108.12	2.29007	79.7142
42	79.433	7139.15	308.231	7145.8	2.47219	81.1543
43	63.096	7177.39	337.443	7185.31	2.69177	82.6543
44	50.119	7219.27	369.575	7228.72	2.93058	84.1093
45	39.811	7265.39	406.022	7276.73	3.19862	93.1845
46	31.623	7319.01	446.577	7332.62	3.49163	94.8295
47	25.119	7375.5	491.553	7391.86	3.81294	96.3845
48	19.953	7443.08	542.93	7462.85	4.17201	98.2646
49	15.849	7507.38	598.168	7531.17	4.55555	100.165
50	12.589	7583.47	659.718	7612.11	4.97188	102.22
51	10	7662.73	728.982	7697.32	5.43439	104.47
52	7.9433	7750.88	803.588	7792.43	5.9191	106.745
53	6.3096	7842.87	891.311	7893.35	6.48362	109.02
54	5.0119	7944.21	993.74	8006.12	7.13008	111.43
55	3.9811	8050.48	1105.79	8126.07	7.82103	113.85
56	3.1623	8158.75	1245.46	8253.27	8.67937	116.35
57	2.5119	8284.63	1409.92	8403.75	9.65836	118.95
58	1.9953	8409.49	1600.07	8560.36	10.7729	121.52
59	1.5849	8549.15	1830.1	8742.84	12.0829	124.225
60	1.2589	8701.39	2112.73	8954.21	13.6475	127.03
61	1	8871.39	2451.79	9203.96	15.4492	130.225
62	0.79433	9078.71	2859.22	9518.3	17.4811	133.41
63	0.63096	9266.59	3340.64	9850.36	19.8244	136.95
64	0.50119	9510.01	3962.33	10302.4	22.619	140.805
65	0.39811	9760.67	4685.94	10827.2	25.6449	145.15
66	0.31623	10096.8	5607.27	11549.3	29.0457	150.016
67	0.25119	10484.8	6603.9	12391.2	32.2049	155.491
68	0.19953	10973.3	7882.39	13510.9	35.6907	161.801
69	0.15849	11477.2	9407.23	14839.9	39.3396	169.071
70	0.12589	12046.1	11375.5	16568.4	43.3599	177.591
71	0.1	12952.2	13563.8	18754.6	46.3213	187.796