Folder: Streamlit_cement_impedance/data/20200304 (part 2)

File: OCP_p29_1.txt
Time (s)	WE(1).Potential (V)	Corrected time (s)	Index	dWE(1).Potential/dt (V/s)	Cutoffs	OCP value (V)
1.31575	-0.00995178	0	1	0	dWE(1).Potential/dt < 1E-06 V/s	-0.0099093
1.41575	-0.00995483	0.1	2	-3.05195e-05	dWE(1).Potential/dt < 1E-06 V/s
1.51575	-0.00995789	0.2	3	-3.05055e-05	dWE(1).Potential/dt < 1E-06 V/s
1.61575	-0.00994263	0.3	4	0.000305179
1.71575	-0.00995178	0.4	5	-0.000356045	dWE(1).Potential/dt < 1E-06 V/s
1.81575	-0.00995483	0.5	6	0.000101732
1.91575	-0.00994873	0.6	7	0.00011698
2.01575	-0.00994873	0.7	8	-8.13821e-05	dWE(1).Potential/dt < 1E-06 V/s
2.11575	-0.00995178	0.8	9	-3.56076e-05	dWE(1).Potential/dt < 1E-06 V/s
2.21575	-0.00995178	0.9	10	3.56138e-05
2.31575	-0.00994263	1	11	0.000157692
2.41575	-0.00994873	1.1	12	-0.000218721	dWE(1).Potential/dt < 1E-06 V/s
2.51575	-0.00995178	1.2	13	4.57745e-05
2.61575	-0.00994568	1.3	14	0.000127175
2.71575	-0.00994873	1.4	15	-0.000137352	dWE(1).Potential/dt < 1E-06 V/s
2.81575	-0.00994263	1.5	16	0.000167865
2.91575	-0.00993958	1.6	17	-2.54469e-05	dWE(1).Potential/dt < 1E-06 V/s
3.01575	-0.00994873	1.7	18	-0.000183098	dWE(1).Potential/dt < 1E-06 V/s
3.11575	-0.00994263	1.8	19	0.000228888
3.21575	-0.00994263	1.9	20	-0.000101719	dWE(1).Potential/dt < 1E-06 V/s
3.31575	-0.00994568	2	21	-3.56014e-05	dWE(1).Potential/dt < 1E-06 V/s
3.41575	-0.00993958	2.1	22	0.000147478
3.51575	-0.00994568	2.2	23	-0.000193262	dWE(1).Potential/dt < 1E-06 V/s
3.61575	-0.00994263	2.3	24	0.000147494
3.71575	-0.00993347	2.4	25	0.000111902
3.81575	-0.00993652	2.5	26	-0.000152591	dWE(1).Potential/dt < 1E-06 V/s
3.91575	-0.00993958	2.6	27	1.01763e-05
4.01575	-0.00993652	2.7	28	8.13728e-05
4.11575	-0.00993347	2.8	29	1.01856e-05
4.21575	-0.00993042	2.9	30	3.05164e-05
4.31575	-0.00994263	3	31	-0.000249231	dWE(1).Potential/dt < 1E-06 V/s
4.41575	-0.00993042	3.1	32	0.000376391
4.51575	-0.00993652	3.2	33	-0.000295022	dWE(1).Potential/dt < 1E-06 V/s
4.61575	-0.00993042	3.3	34	0.000223822
4.71575	-0.00993652	3.4	35	-0.000203479	dWE(1).Potential/dt < 1E-06 V/s
4.81575	-0.00993652	3.5	36	9.15708e-05
4.91575	-0.00993652	3.6	37	-2.03432e-05	dWE(1).Potential/dt < 1E-06 V/s
5.01575	-0.00993347	3.7	38	5.5957e-05
5.11575	-0.00992432	3.8	39	0.000132226
5.21575	-0.00993652	3.9	40	-0.000320434	dWE(1).Potential/dt < 1E-06 V/s
5.31575	-0.00993042	4	41	0.000284848
5.41575	-0.00992737	4.1	42	-5.59601e-05	dWE(1).Potential/dt < 1E-06 V/s
5.51575	-0.00992432	4.2	43	4.06833e-05
5.61575	-0.00992432	4.3	44	-2.54344e-05	dWE(1).Potential/dt < 1E-06 V/s
5.71575	-0.00991821	4.4	45	0.000122072
5.81575	-0.00992737	4.5	46	-0.000239046	dWE(1).Potential/dt < 1E-06 V/s
5.91575	-0.00992126	4.6	47	0.000239046
6.01575	-0.00991516	4.7	48	1.01949e-05
6.11575	-0.00991821	4.8	49	-0.000106835	dWE(1).Potential/dt < 1E-06 V/s
6.21575	-0.00991211	4.9	50	0.000167865
6.31575	-0.00992126	5	51	-0.000249238	dWE(1).Potential/dt < 1E-06 V/s
6.41575	-0.00991821	5.1	52	0.000183123
6.51575	-0.00990906	5.2	53	0.000101707
6.61575	-0.00991821	5.3	54	-0.00026448	dWE(1).Potential/dt < 1E-06 V/s
6.71575	-0.00991516	5.4	55	0.000193281
6.81575	-0.00991211	5.5	56	-1.01763e-05	dWE(1).Potential/dt < 1E-06 V/s
6.91575	-0.00990601	5.6	57	8.64641e-05
7.01575	-0.00990601	5.7	58	-6.10234e-05	dWE(1).Potential/dt < 1E-06 V/s
7.11575	-0.00991211	5.8	59	-9.15367e-05	dWE(1).Potential/dt < 1E-06 V/s
7.21575	-0.00991821	5.9	60	-4.07019e-05	dWE(1).Potential/dt < 1E-06 V/s
7.31575	-0.00990906	6	61	0.000218703
7.41575	-0.00991516	6.1	62	-0.000239046	dWE(1).Potential/dt < 1E-06 V/s
7.51575	-0.00990295	6.2	63	0.000325504
7.61575	-0.00991516	6.3	64	-0.000386543	dWE(1).Potential/dt < 1E-06 V/s
7.71575	-0.00990601	6.4	65	0.000350932
7.81575	-0.00990601	6.5	66	-0.000147484	dWE(1).Potential/dt < 1E-06 V/s
7.91575	-0.00990601	6.6	67	3.05195e-05
8.01575	-0.00990601	6.7	68	3.10441e-09	dWE(1).Potential/dt < 1E-06 V/s
8.11575	-0.00990295	6.8	69	5.5957e-05
8.21575	-0.00990601	6.9	70	-9.15646e-05	dWE(1).Potential/dt < 1E-06 V/s
8.31575	-0.00989685	7	71	0.000213649
8.41575	-0.0098938	7.1	72	-6.10576e-05	dWE(1).Potential/dt < 1E-06 V/s
8.51575	-0.00990295	7.2	73	-0.000172925	dWE(1).Potential/dt < 1E-06 V/s
8.61575	-0.00989685	7.3	74	0.000228888
8.71575	-0.00989075	7.4	75	1.01638e-05
8.81575	-0.0098938	7.5	76	-0.000106804	dWE(1).Potential/dt < 1E-06 V/s
8.91575	-0.00989685	7.6	77	6.20882e-09	dWE(1).Potential/dt < 1E-06 V/s
9.01575	-0.0098877	7.7	78	0.000193271
9.11575	-0.00989075	7.8	79	-0.000172934	dWE(1).Potential/dt < 1E-06 V/s
9.21575	-0.00989685	7.9	80	-4.57528e-05	dWE(1).Potential/dt < 1E-06 V/s
9.31575	-0.0098938	8	81	0.000116962
9.41575	-0.00989685	8.1	82	-0.00011188	dWE(1).Potential/dt < 1E-06 V/s
9.51575	-0.0098938	8.2	83	0.000101707
9.61575	-0.00989685	8.3	84	-0.000101707	dWE(1).Potential/dt < 1E-06 V/s
9.71575	-0.0098938	8.4	85	0.000101707
9.81575	-0.00989685	8.5	86	-0.000101707	dWE(1).Potential/dt < 1E-06 V/s
9.91575	-0.00989075	8.6	87	0.000157661
10.0157	-0.0098999	8.7	88	-0.000249204	dWE(1).Potential/dt < 1E-06 V/s
10.1157	-0.0098877	8.8	89	0.000350929
10.2157	-0.00988464	8.9	90	-0.000116971	dWE(1).Potential/dt < 1E-06 V/s
10.3157	-0.0098938	9	91	-0.000162786	dWE(1).Potential/dt < 1E-06 V/s
10.4157	-0.00989685	9.1	92	6.10576e-05
10.5157	-0.00988464	9.2	93	0.000228879
10.6157	-0.00989685	9.3	94	-0.000376385	dWE(1).Potential/dt < 1E-06 V/s
10.7157	-0.0098938	9.4	95	0.000239046
10.8157	-0.00989075	9.5	96	-2.03432e-05	dWE(1).Potential/dt < 1E-06 V/s
10.9157	-0.0098938	9.6	97	-8.1379e-05	dWE(1).Potential/dt < 1E-06 V/s
11.0157	-0.0098877	9.7	98	0.000157673
11.1157	-0.0098938	9.8	99	-0.00019329	dWE(1).Potential/dt < 1E-06 V/s
11.2157	-0.0098877	9.9	100	0.000203457
11.3157	-0.00989075	10	101	-0.000147509	dWE(1).Potential/dt < 1E-06 V/s
11.4157	-0.00989075	10.1	102	5.59601e-05
11.5157	-0.0098938	10.2	103	-6.6124e-05	dWE(1).Potential/dt < 1E-06 V/s
11.6157	-0.0098877	10.3	104	0.0001475
11.7157	-0.0098938	10.4	105	-0.00019329	dWE(1).Potential/dt < 1E-06 V/s
11.8157	-0.00988464	10.5	106	0.000259411
11.9157	-0.00988464	10.6	107	-0.000127169	dWE(1).Potential/dt < 1E-06 V/s
12.0157	-0.00988159	10.7	108	8.64703e-05
12.1157	-0.00988159	10.8	109	-3.55921e-05	dWE(1).Potential/dt < 1E-06 V/s
12.2157	-0.00988464	10.9	110	-4.57745e-05	dWE(1).Potential/dt < 1E-06 V/s
12.3157	-0.0098877	11	111	-2.03587e-05	dWE(1).Potential/dt < 1E-06 V/s
12.4157	-0.00988464	11.1	112	8.13915e-05
12.5157	-0.00988464	11.2	113	-4.5787e-05	dWE(1).Potential/dt < 1E-06 V/s
12.6157	-0.00989075	11.3	114	-0.000101738	dWE(1).Potential/dt < 1E-06 V/s
12.7157	-0.00988464	11.4	115	0.000183132
12.8157	-0.0098877	11.5	116	-0.000147525	dWE(1).Potential/dt < 1E-06 V/s
12.9157	-0.0098877	11.6	117	5.5957e-05
13.0157	-0.00989075	11.7	118	-6.61271e-05	dWE(1).Potential/dt < 1E-06 V/s
13.1157	-0.0098877	11.8	119	9.15677e-05
13.2157	-0.00988464	11.9	120	1.01701e-05
13.3157	-0.00989075	12	121	-0.000137348	dWE(1).Potential/dt < 1E-06 V/s
13.4157	-0.00988464	12.1	122	0.000193306
13.5157	-0.00989075	12.2	123	-0.000203479	dWE(1).Potential/dt < 1E-06 V/s
13.6157	-0.0098877	12.3	124	0.000147525
13.7157	-0.00989075	12.4	125	-0.000111911	dWE(1).Potential/dt < 1E-06 V/s
13.8157	-0.00989075	12.5	126	4.5787e-05
13.9157	-0.0098877	12.6	127	4.57839e-05
14.0157	-0.00989075	12.7	128	-9.15646e-05	dWE(1).Potential/dt < 1E-06 V/s
14.1157	-0.00988464	12.8	129	0.000157695
[...]
54.9157	-0.0098999	53.6	537	-4.5787e-05	dWE(1).Potential/dt < 1E-06 V/s
55.0157	-0.00990295	53.7	538	-4.57839e-05	dWE(1).Potential/dt < 1E-06 V/s
55.1157	-0.0098999	53.8	539	9.15646e-05
55.2157	-0.00989685	53.9	540	1.01669e-05
55.3157	-0.00990601	54	541	-0.000193281	dWE(1).Potential/dt < 1E-06 V/s
55.4157	-0.00990906	54.1	542	6.1042e-05
55.5157	-0.00990906	54.2	543	5.07261e-06
55.6157	-0.0098999	54.3	544	0.000157682
55.7157	-0.00991516	54.4	545	-0.000386568	dWE(1).Potential/dt < 1E-06 V/s
55.8157	-0.00990906	54.5	546	0.000320419
55.9157	-0.00990601	54.6	547	-6.61147e-05	dWE(1).Potential/dt < 1E-06 V/s
56.0157	-0.00990601	54.7	548	-1.5252e-05	dWE(1).Potential/dt < 1E-06 V/s
56.1157	-0.00990906	54.8	549	-4.57777e-05	dWE(1).Potential/dt < 1E-06 V/s
56.2157	-0.00990601	54.9	550	9.1546e-05
56.3157	-0.00990295	55	551	1.01856e-05
56.4157	-0.00990601	55.1	552	-8.13915e-05	dWE(1).Potential/dt < 1E-06 V/s
56.5157	-0.0098999	55.2	553	0.000157695
56.6157	-0.00990295	55.3	554	-0.000137352	dWE(1).Potential/dt < 1E-06 V/s
56.7157	-0.00990906	55.4	555	-5.59508e-05	dWE(1).Potential/dt < 1E-06 V/s
56.8157	-0.00991211	55.5	556	5.10055e-06
56.9157	-0.00990906	55.6	557	7.11904e-05
57.0157	-0.00989685	55.7	558	0.000178038
57.1157	-0.00990601	55.8	559	-0.000300103	dWE(1).Potential/dt < 1E-06 V/s
57.2157	-0.00991211	55.9	560	3.56324e-05
57.3157	-0.00990906	56	561	9.66155e-05
57.4157	-0.00991211	56.1	562	-0.00011188	dWE(1).Potential/dt < 1E-06 V/s
57.5157	-0.00990906	56.2	563	0.000101707
57.6157	-0.0098999	56.3	564	0.000122084
57.7157	-0.0098999	56.4	565	-9.66528e-05	dWE(1).Potential/dt < 1E-06 V/s
57.8157	-0.00991211	56.5	566	-0.000193274	dWE(1).Potential/dt < 1E-06 V/s
57.9157	-0.00990601	56.6	567	0.00025431
58.0157	-0.00990906	56.7	568	-0.00016784	dWE(1).Potential/dt < 1E-06 V/s
58.1157	-0.00991211	56.8	569	6.20882e-09	dWE(1).Potential/dt < 1E-06 V/s
58.2157	-0.00991211	56.9	570	2.54344e-05
58.3157	-0.00990601	57	571	0.000101719
58.4157	-0.00990906	57.1	572	-0.00012715	dWE(1).Potential/dt < 1E-06 V/s
58.5157	-0.00990601	57.2	573	0.000111889
58.6157	-0.00990601	57.3	574	-4.57683e-05	dWE(1).Potential/dt < 1E-06 V/s
58.7157	-0.00991211	57.4	575	-0.000101707	dWE(1).Potential/dt < 1E-06 V/s
58.8157	-0.00991211	57.5	576	7.12059e-05
58.9157	-0.00991211	57.6	577	-2.0337e-05	dWE(1).Potential/dt < 1E-06 V/s
59.0157	-0.00990601	57.7	578	0.000111889
59.1157	-0.00991211	57.8	579	-0.00018308	dWE(1).Potential/dt < 1E-06 V/s
59.2157	-0.00991516	57.9	580	3.55952e-05
59.3157	-0.00990295	58	581	0.000239043
59.4157	-0.00991211	58.1	582	-0.000320419	dWE(1).Potential/dt < 1E-06 V/s
59.5157	-0.00990906	58.2	583	0.000203435
59.6157	-0.00990601	58.3	584	-1.01701e-05	dWE(1).Potential/dt < 1E-06 V/s
59.7157	-0.00991211	58.4	585	-0.000137308	dWE(1).Potential/dt < 1E-06 V/s
59.8157	-0.00991211	58.5	586	8.1379e-05
59.9157	-0.00990906	58.6	587	3.55921e-05
60.0157	-0.00990601	58.7	588	2.03463e-05
60.1157	-0.00990906	58.8	589	-8.1379e-05	dWE(1).Potential/dt < 1E-06 V/s
60.2157	-0.00991516	58.9	590	-6.61178e-05	dWE(1).Potential/dt < 1E-06 V/s
60.3157	-0.00991211	59	591	0.000116977
60.4157	-0.00990906	59.1	592	-6.20882e-09	dWE(1).Potential/dt < 1E-06 V/s
60.5157	-0.00990906	59.2	593	-2.54344e-05	dWE(1).Potential/dt < 1E-06 V/s
60.6157	-0.00991821	59.3	594	-0.000157673	dWE(1).Potential/dt < 1E-06 V/s
60.7157	-0.00991516	59.4	595	0.000162764
60.8157	-0.00991516	59.5	596	-6.61302e-05	dWE(1).Potential/dt < 1E-06 V/s
60.9157	-0.00991516	59.6	597	1.01701e-05
61.0157	-0.00991821	59.7	598	-5.5957e-05	dWE(1).Potential/dt < 1E-06 V/s
61.1157	-0.00991516	59.8	599	9.15646e-05
61.2157	-0.00991516	59.9	600	-4.5787e-05	dWE(1).Potential/dt < 1E-06 V/s

File: OCP_p30_1.txt
Time (s)	WE(1).Potential (V)	Corrected time (s)	Index	dWE(1).Potential/dt (V/s)	Cutoffs	OCP value (V)
1.30974	0.00355835	0	1	0	dWE(1).Potential/dt < 1E-06 V/s	0.00354875
1.40974	0.00355835	0.1	2	0	dWE(1).Potential/dt < 1E-06 V/s
1.50974	0.00355835	0.2	3	-1.16415e-09	dWE(1).Potential/dt < 1E-06 V/s
1.60974	0.0035614	0.3	4	5.59453e-05
1.70974	0.00357056	0.4	5	0.000132252
1.80974	0.0035675	0.5	6	-0.00015259	dWE(1).Potential/dt < 1E-06 V/s
1.90974	0.00357056	0.6	7	0.000122073
2.00974	0.0035614	0.7	8	-0.000213627	dWE(1).Potential/dt < 1E-06 V/s
2.10974	0.00354614	0.8	9	-0.000162756	dWE(1).Potential/dt < 1E-06 V/s
2.20974	0.00356445	0.9	10	0.000483201
2.30974	0.0035553	1	11	-0.000432343	dWE(1).Potential/dt < 1E-06 V/s
2.40974	0.00357666	1.1	12	0.00055949
2.50974	0.00357056	1.2	13	-0.000391635	dWE(1).Potential/dt < 1E-06 V/s
2.60974	0.00357666	1.3	14	0.000254307
2.70974	0.0035675	1.4	15	-0.00025939	dWE(1).Potential/dt < 1E-06 V/s
2.80974	0.00357361	1.5	16	0.000239052
2.90974	0.00355225	1.6	17	-0.00049337	dWE(1).Potential/dt < 1E-06 V/s
3.00974	0.00355835	1.7	18	0.000381472
3.10974	0.00357056	1.8	19	8.13766e-05
3.20974	0.00357361	1.9	20	-6.61216e-05	dWE(1).Potential/dt < 1E-06 V/s
3.30974	0.00357056	2	21	-5.08649e-05	dWE(1).Potential/dt < 1E-06 V/s
3.40974	0.00357971	2.1	22	0.000213627
3.50974	0.0035614	2.2	23	-0.000452687	dWE(1).Potential/dt < 1E-06 V/s
3.60974	0.00355225	2.3	24	7.63063e-05
3.70974	0.0035553	2.4	25	0.000101724
3.80974	0.00356445	2.5	26	0.000101727
3.90974	0.00357361	2.6	27	7.11988e-05
4.00974	0.00355835	2.7	28	-0.000356038	dWE(1).Potential/dt < 1E-06 V/s
4.10974	0.00358276	2.8	29	0.000656127
4.20974	0.00354919	2.9	30	-0.000951125	dWE(1).Potential/dt < 1E-06 V/s
4.30974	0.00355835	3	31	0.000640859
4.40974	0.00357361	3.1	32	6.1035e-05
4.50974	0.00356445	3.2	33	-0.000315347	dWE(1).Potential/dt < 1E-06 V/s
4.60974	0.00357666	3.3	34	0.000381461
4.70974	0.00356445	3.4	35	-0.000396715	dWE(1).Potential/dt < 1E-06 V/s
4.80974	0.00354919	3.5	36	-9.6648e-05	dWE(1).Potential/dt < 1E-06 V/s
4.90974	0.0035675	3.6	37	0.00047302
5.00974	0.00355225	3.7	38	-0.000544223	dWE(1).Potential/dt < 1E-06 V/s
5.10974	0.00358582	3.8	39	0.000854493
5.20974	0.0035553	3.9	40	-0.00100199	dWE(1).Potential/dt < 1E-06 V/s
5.30974	0.00357666	4	41	0.000859576
5.40974	0.00355835	4.1	42	-0.000686639	dWE(1).Potential/dt < 1E-06 V/s
5.50974	0.00357971	4.2	43	0.000676469
5.60974	0.00357361	4.3	44	-0.000422167	dWE(1).Potential/dt < 1E-06 V/s
5.70974	0.0035553	4.4	45	-0.000193277	dWE(1).Potential/dt < 1E-06 V/s
5.80974	0.0035675	4.5	46	0.000417076
5.90974	0.00355835	4.6	47	-0.000371296	dWE(1).Potential/dt < 1E-06 V/s
6.00974	0.00357056	4.7	48	0.000371293
6.10974	0.00355835	4.8	49	-0.000396729	dWE(1).Potential/dt < 1E-06 V/s
6.20974	0.00357361	4.9	50	0.000462846
6.30974	0.00356445	5	51	-0.000386555	dWE(1).Potential/dt < 1E-06 V/s
6.40974	0.00356445	5.1	52	0.000157671
6.50974	0.00356445	5.2	53	-3.05187e-05	dWE(1).Potential/dt < 1E-06 V/s
6.60974	0.00357666	5.3	54	0.000223789
6.70974	0.0035614	5.4	55	-0.000422151	dWE(1).Potential/dt < 1E-06 V/s
6.80974	0.00355225	5.5	56	5.08673e-05
6.90974	0.00355835	5.6	57	0.000167844
7.00974	0.00355835	5.7	58	-0.00010173	dWE(1).Potential/dt < 1E-06 V/s
7.10974	0.00356445	5.8	59	0.000132244
7.20974	0.0035614	5.9	60	-0.000127165	dWE(1).Potential/dt < 1E-06 V/s
7.30974	0.00357971	6	61	0.000391656
7.40974	0.00357361	6.1	62	-0.000335706	dWE(1).Potential/dt < 1E-06 V/s
7.50974	0.0035553	6.2	63	-0.000203449	dWE(1).Potential/dt < 1E-06 V/s
7.60974	0.0035675	6.3	64	0.000417076
7.70974	0.00357361	6.4	65	-9.15513e-05	dWE(1).Potential/dt < 1E-06 V/s
7.80974	0.0035675	6.5	66	-0.000142418	dWE(1).Potential/dt < 1E-06 V/s
7.90974	0.00356445	6.6	67	3.56099e-05
8.00974	0.00357666	6.7	68	0.000239043
8.10974	0.0035675	6.8	69	-0.000320422	dWE(1).Potential/dt < 1E-06 V/s
8.20974	0.00357971	6.9	70	0.000371298
8.30974	0.0035675	7	71	-0.000396736	dWE(1).Potential/dt < 1E-06 V/s
8.40974	0.0035614	7.1	72	7.12112e-05
8.50974	0.00357971	7.2	73	0.000366219
8.60974	0.00357056	7.3	74	-0.000401826	dWE(1).Potential/dt < 1E-06 V/s
8.70974	0.0035675	7.4	75	0.000111903
8.80974	0.00357361	7.5	76	0.000116985
8.90974	0.00357361	7.6	77	-8.13852e-05	dWE(1).Potential/dt < 1E-06 V/s
9.00974	0.00357666	7.7	78	7.629e-05
9.10974	0.00357971	7.8	79	2.03564e-05
9.20974	0.00357361	7.9	80	-0.000137341	dWE(1).Potential/dt < 1E-06 V/s
9.30974	0.00357666	8	81	0.000137328
9.40974	0.00356445	8.1	82	-0.000279734	dWE(1).Potential/dt < 1E-06 V/s
9.50974	0.00357056	8.2	83	0.000264475
9.60974	0.00355835	8.3	84	-0.00033569	dWE(1).Potential/dt < 1E-06 V/s
9.70974	0.00357666	8.4	85	0.000498448
9.80974	0.00357056	8.5	86	-0.000366202	dWE(1).Potential/dt < 1E-06 V/s
9.90974	0.00357971	8.6	87	0.000300088
10.0097	0.00358887	8.7	88	4.06817e-05
10.1097	0.0035553	8.8	89	-0.00069173	dWE(1).Potential/dt < 1E-06 V/s
10.2097	0.00357361	8.9	90	0.000757853
10.3097	0.00357056	9	91	-0.000381472	dWE(1).Potential/dt < 1E-06 V/s
10.4097	0.00355835	9.1	92	-0.000127157	dWE(1).Potential/dt < 1E-06 V/s
10.5097	0.0035675	9.2	93	0.000300088
10.6097	0.0035675	9.3	94	-0.000147497	dWE(1).Potential/dt < 1E-06 V/s
10.7097	0.0035614	9.4	95	-8.13813e-05	dWE(1).Potential/dt < 1E-06 V/s
10.8097	0.00354919	9.5	96	-0.000152579	dWE(1).Potential/dt < 1E-06 V/s
10.9097	0.00355835	9.6	97	0.000289904
11.0097	0.00356445	9.7	98	-3.55998e-05	dWE(1).Potential/dt < 1E-06 V/s
11.1097	0.0035675	9.8	99	1.52535e-05
11.2097	0.0035614	9.9	100	-0.000127153	dWE(1).Potential/dt < 1E-06 V/s
11.3097	0.00356445	10	101	0.000137337
11.4097	0.0035675	10.1	102	-1.00893e-08	dWE(1).Potential/dt < 1E-06 V/s
11.5097	0.00355835	10.2	103	-0.000193273	dWE(1).Potential/dt < 1E-06 V/s
11.6097	0.0035675	10.3	104	0.000284828
11.7097	0.0035614	10.4	105	-0.000249226	dWE(1).Potential/dt < 1E-06 V/s
11.8097	0.00357666	10.5	106	0.000381474
11.9097	0.0035614	10.6	107	-0.000478108	dWE(1).Potential/dt < 1E-06 V/s
12.0097	0.00355835	10.7	108	0.000172936
12.1097	0.0035675	10.8	109	0.000152583
12.2097	0.0035675	10.9	110	-0.000116979	dWE(1).Potential/dt < 1E-06 V/s
12.3097	0.0035675	11	111	3.05202e-05
12.4097	0.00355835	11.1	112	-0.000167847	dWE(1).Potential/dt < 1E-06 V/s
12.5097	0.0035675	11.2	113	0.000274655
12.6097	0.0035553	11.3	114	-0.000361121	dWE(1).Potential/dt < 1E-06 V/s
12.7097	0.00356445	11.4	115	0.000340781
12.8097	0.00354919	11.5	116	-0.000427251	dWE(1).Potential/dt < 1E-06 V/s
12.9097	0.0035614	11.6	117	0.000432326
13.0097	0.0035614	11.7	118	-0.00019327	dWE(1).Potential/dt < 1E-06 V/s
13.1097	0.0035614	11.8	119	4.0691e-05
13.2097	0.0035553	11.9	120	-0.000111894	dWE(1).Potential/dt < 1E-06 V/s
13.3097	0.0035614	12	121	0.0001831
13.4097	0.0035553	12.1	122	-0.000203443	dWE(1).Potential/dt < 1E-06 V/s
13.5097	0.00354614	12.2	123	-7.63001e-05	dWE(1).Potential/dt < 1E-06 V/s
13.6097	0.0035675	12.3	124	0.000478118
13.7097	0.00354919	12.4	125	-0.000615436	dWE(1).Potential/dt < 1E-06 V/s
13.8097	0.00356445	12.5	126	0.000564569
13.9097	0.0035675	12.6	127	-0.000183108	dWE(1).Potential/dt < 1E-06 V/s
14.0097	0.0035553	12.7	128	-0.000208531	dWE(1).Potential/dt < 1E-06 V/s
14.1097	0.00355225	12.8	129	9.66387e-05
14.2097	0.00354614	12.9	130	-0.000116984	dWE(1).Potential/dt < 1E-06 V/s
14.3097	0.00355835	13	131	0.000284836
14.4097	0.0035614	13.1	132	-0.00010682	dWE(1).Potential/dt < 1E-06 V/s
[...]
54.9097	0.00355835	53.6	537	-0.000233965	dWE(1).Potential/dt < 1E-06 V/s
55.0097	0.00355225	53.7	538	-2.5436e-05	dWE(1).Potential/dt < 1E-06 V/s
55.1097	0.00355835	53.8	539	0.000172936
55.2097	0.0035614	53.9	540	-3.56099e-05	dWE(1).Potential/dt < 1E-06 V/s
55.3097	0.00355835	54	541	-7.12004e-05	dWE(1).Potential/dt < 1E-06 V/s
55.4097	0.0035553	54.1	542	-1.01786e-05	dWE(1).Potential/dt < 1E-06 V/s
55.5097	0.00355225	54.2	543	-3.05148e-05	dWE(1).Potential/dt < 1E-06 V/s
55.6097	0.00354004	54.3	544	-0.000198362	dWE(1).Potential/dt < 1E-06 V/s
55.7097	0.0035614	54.4	545	0.000523881
55.8097	0.00354004	54.5	546	-0.000681552	dWE(1).Potential/dt < 1E-06 V/s
55.9097	0.00354614	54.6	547	0.000432326
56.0097	0.0035614	54.7	548	0.000137334
56.1097	0.00354309	54.8	549	-0.000493365	dWE(1).Potential/dt < 1E-06 V/s
56.2097	0.00354309	54.9	550	0.000264478
56.3097	0.00355225	55	551	0.000106812
56.4097	0.00355225	55.1	552	-0.000106806	dWE(1).Potential/dt < 1E-06 V/s
56.5097	0.00354614	55.2	553	-8.13813e-05	dWE(1).Potential/dt < 1E-06 V/s
56.6097	0.00354919	55.3	554	0.000127165
56.7097	0.00354309	55.4	555	-0.000167859	dWE(1).Potential/dt < 1E-06 V/s
56.8097	0.00355225	55.5	556	0.00024923
56.9097	0.00353699	55.6	557	-0.000406896	dWE(1).Potential/dt < 1E-06 V/s
57.0097	0.00357666	55.7	558	0.000935871
57.1097	0.00355225	55.8	559	-0.000961296	dWE(1).Potential/dt < 1E-06 V/s
57.2097	0.00353699	55.9	560	0.000137329
57.3097	0.0035553	56	561	0.000432334
57.4097	0.00354919	56.1	562	-0.000376382	dWE(1).Potential/dt < 1E-06 V/s
57.5097	0.00354309	56.2	563	2.03362e-05
57.6097	0.0035614	56.3	564	0.000386555
57.7097	0.0035675	56.4	565	-0.000122061	dWE(1).Potential/dt < 1E-06 V/s
57.8097	0.0035675	56.5	566	-1.01724e-05	dWE(1).Potential/dt < 1E-06 V/s
57.9097	0.00355225	56.6	567	-0.000259397	dWE(1).Potential/dt < 1E-06 V/s
58.0097	0.00354004	56.7	568	-4.57753e-05	dWE(1).Potential/dt < 1E-06 V/s
58.1097	0.00354004	56.8	569	9.15513e-05
58.2097	0.0035553	56.9	570	0.000239054
58.3097	0.0035553	57	571	-0.000178019	dWE(1).Potential/dt < 1E-06 V/s
58.4097	0.00354309	57.1	572	-0.000172934	dWE(1).Potential/dt < 1E-06 V/s
58.5097	0.00356445	57.2	573	0.000534058
58.6097	0.00354004	57.3	574	-0.000737514	dWE(1).Potential/dt < 1E-06 V/s
58.7097	0.00355835	57.4	575	0.000691734
58.8097	0.00354309	57.5	576	-0.000574752	dWE(1).Potential/dt < 1E-06 V/s
58.9097	0.00354309	57.6	577	0.000239052
59.0097	0.00354919	57.7	578	6.10365e-05
59.1097	0.00354309	57.8	579	-0.000183113	dWE(1).Potential/dt < 1E-06 V/s
59.2097	0.00354919	57.9	580	0.000203454
59.3097	0.0035553	58	581	2.03385e-05
59.4097	0.00353699	58.1	582	-0.000386551	dWE(1).Potential/dt < 1E-06 V/s
59.5097	0.00354614	58.2	583	0.000401814
59.6097	0.00354614	58.3	584	-0.000167843	dWE(1).Potential/dt < 1E-06 V/s
59.7097	0.00354919	58.4	585	8.64725e-05
59.8097	0.00353394	58.5	586	-0.000315357	dWE(1).Potential/dt < 1E-06 V/s
59.9097	0.0035614	58.6	587	0.000691726
60.0097	0.00354309	58.7	588	-0.000706981	dWE(1).Potential/dt < 1E-06 V/s
60.1097	0.00354309	58.8	589	0.000305168
60.2097	0.00354919	58.9	590	5.08642e-05
60.3097	0.00355835	59	591	9.66317e-05
60.4097	0.00355225	59.1	592	-0.000198362	dWE(1).Potential/dt < 1E-06 V/s
60.5097	0.00354919	59.2	593	4.57823e-05
60.6097	0.00354614	59.3	594	-4.07011e-05	dWE(1).Potential/dt < 1E-06 V/s
60.7097	0.00353394	59.4	595	-0.000198351	dWE(1).Potential/dt < 1E-06 V/s
60.8097	0.00354614	59.5	596	0.000356024
60.9097	0.0035553	59.6	597	-1.52473e-05	dWE(1).Potential/dt < 1E-06 V/s
61.0097	0.00354309	59.7	598	-0.000289922	dWE(1).Potential/dt < 1E-06 V/s
61.1097	0.00353088	59.8	599	-5.08673e-05	dWE(1).Potential/dt < 1E-06 V/s
61.2097	0.00354614	59.9	600	0.000381476