Folder: Streamlit_cement_impedance/data/20200304 (part 4)

File: Z_p30_1.txt
Index	Frequency (Hz)	Z' (Ω)	-Z'' (Ω)	Z (Ω)	-Phase (°)	Time (s)
1	1000000	2470.76	4189.42	4863.73	59.4696	70.0811
2	794330	3350.67	4576.84	5672.25	53.7924	71.5411
3	630960	4471	4965.73	6681.94	48.001	72.9611
4	501190	5652.74	5243.12	7709.98	42.847	74.4912
5	398110	7000.1	5420.79	8853.6	37.7537	79.5763
6	316230	8126.38	5291.91	9697.54	33.0722	80.8913
7	251190	8902.03	4967.27	10194.1	29.1612	84.9314
8	199530	9786	4748.21	10877.1	25.8828	86.3064
9	158490	10570.3	4487.76	11483.5	23.0042	87.7264
10	125890	11270.5	4187.18	12023.2	20.3809	89.0464
11	100000	11902.5	3884.74	12520.4	18.0756	90.4715
12	79433	12476.9	3580.64	12980.6	16.0125	91.7765
13	63096	12959.8	3276.31	13367.5	14.1874	93.1115
14	50119	13402.6	2989.37	13731.9	12.5737	94.4215
15	39811	13770.6	2718.77	14036.4	11.1685	95.7266
16	31623	14112.2	2428.51	14319.7	9.76416	97.0366
17	25119	14397.8	2214.22	14567.1	8.74293	98.3616
18	19953	14662.1	2029.78	14801.9	7.88178	99.7416
19	15849	14899.2	1846.45	15013.1	7.06462	101.072
20	12589	15103.3	1706.33	15199.4	6.44577	102.422
21	10000	15269.1	1600.53	15352.8	5.98399	103.772
22	7943.3	15456.2	1499.3	15528.7	5.54053	105.082
23	6309.6	15633.9	1414.06	15697.7	5.16824	106.407
24	5011.9	15801.3	1349.64	15858.8	4.88197	107.747
25	3981.1	15968.3	1294.54	16020.6	4.63479	109.097
26	3162.3	16133.7	1255.56	16182.5	4.44989	110.442
27	2511.9	16282.8	1226.93	16329	4.30917	111.767
28	1995.3	16441.2	1206.86	16485.4	4.19823	113.082
29	1584.9	16606.8	1194.61	16649.7	4.11447	114.297
30	1258.9	16777.9	1194.69	16820.3	4.07295	115.652
31	1000	16928.9	1187.22	16970.5	4.01158	117.007
32	794.33	17096.1	1193.36	17137.7	3.99294	118.527
33	630.96	17268.5	1195.38	17309.8	3.95988	119.937
34	501.19	17443.4	1205.79	17485	3.95432	121.292
35	398.11	17618.3	1214.61	17660.1	3.94376	122.592
36	316.23	17794.5	1224.43	17836.6	3.93629	123.902
37	251.19	17978.5	1233.03	18020.7	3.9234	125.352
38	199.53	18162	1245.86	18204.7	3.92417	126.602
39	158.49	18342.5	1255.7	18385.4	3.91626	128.002
40	125.89	18539.5	1268.11	18582.8	3.91296	129.397
41	100	18720.2	1272.05	18763.4	3.88731	130.777
42	79.433	18908.8	1278.98	18952	3.86955	132.207
43	63.096	19094	1264.13	19135.8	3.78778	133.687
44	50.119	19322.9	1412.99	19374.5	4.18234	151.988
45	39.811	19522.8	1282.35	19564.9	3.75804	161.063
46	31.623	19710.2	1268.57	19751	3.68253	162.718
47	25.119	19933	1284.53	19974.4	3.68718	164.313
48	19.953	20121.1	1270.31	20161.1	3.61247	166.208
49	15.849	20311.3	1235.72	20348.8	3.48153	168.183
50	12.589	20477.5	1232.85	20514.6	3.44535	170.158
51	10	20686.2	1207.09	20721.4	3.33956	172.413
52	7.9433	20834.6	1171.28	20867.5	3.21768	174.768
53	6.3096	21037.5	1158.56	21069.3	3.15217	177.138
54	5.0119	21175.9	1150.53	21207.1	3.10994	179.548
55	3.9811	21304.6	1126.07	21334.3	3.02559	182.013
56	3.1623	21463	1094.63	21490.9	2.9196	184.528
57	2.5119	21552.6	1145.64	21583.1	3.04273	187.178
58	1.9953	21769.1	1084.09	21796	2.85096	189.823
59	1.5849	21672.4	1233.79	21707.5	3.25829	192.678
60	1.2589	21923.4	1240.88	21958.5	3.23951	195.563
61	1	22079.6	1379.17	22122.6	3.57426	200.674
62	0.79433	22190.4	1506.68	22241.5	3.8843	203.824
63	0.63096	22312.1	1660.11	22373.8	4.25519	207.299
64	0.50119	22416.4	1899.29	22496.7	4.84297	211.119
65	0.39811	22515.7	2188.58	22621.9	5.55184	215.349
66	0.31623	22675.8	2596.96	22824.1	6.53337	220.089
67	0.25119	22866.4	3016.25	23064.4	7.51438	225.559
68	0.19953	23013.2	3563.11	23287.4	8.80115	231.834
69	0.15849	23208.7	4287.54	23601.4	10.4667	239.194
70	0.12589	23458.5	5287.7	24047.1	12.7025	247.774
71	0.1	23788.2	6216.85	24587.1	14.6462	257.985

File: Z_p31_1.txt
Index	Frequency (Hz)	Z' (Ω)	-Z'' (Ω)	Z (Ω)	-Phase (°)	Time (s)
1	1000000	2209.73	4018.6	4586.07	61.1947	70.4071
2	794330	2988.3	4436.74	5349.26	56.0384	71.8771
3	630960	4015.1	4946.8	6371.18	50.9353	73.2871
4	501190	5169.81	5328.14	7424.02	45.8641	74.7922
5	398110	6471.22	5744.44	8653.05	41.5952	80.2023
6	316230	7653.1	5768.88	9583.84	37.0088	81.5423
7	251190	8585.4	5489	10190.1	32.5924	85.6774
8	199530	9603.54	5368.36	11002.2	29.2051	87.0274
9	158490	10553	5149.27	11742.3	26.0098	88.4974
10	125890	11416.9	4852.67	12405.4	23.0276	89.8575
11	100000	12180.7	4541.23	12999.7	20.4466	91.3775
12	79433	12869.2	4193.74	13535.3	18.0494	92.7275
13	63096	13509	3834.94	14042.8	15.8482	94.1125
14	50119	14022.8	3461.69	14443.7	13.8669	95.6426
15	39811	14480.7	3117.1	14812.4	12.148	97.0126
16	31623	14848.9	2801.76	15110.9	10.6853	98.3776
17	25119	15167.7	2533.8	15377.9	9.48382	99.7526
18	19953	15479.3	2298.9	15649.1	8.4475	101.128
19	15849	15714	2090.25	15852.4	7.57693	102.508
20	12589	15933.4	1915.07	16048	6.85364	103.838
21	10000	16116.5	1801.69	16216.9	6.37871	105.203
22	7943.3	16322.4	1685.79	16409.3	5.89665	106.533
23	6309.6	16512.2	1595.87	16589.2	5.52036	107.898
24	5011.9	16700.5	1527.99	16770.3	5.22765	109.233
25	3981.1	16876.4	1479.71	16941.1	5.01085	110.613
26	3162.3	17056.5	1447.63	17117.8	4.85121	112.008
27	2511.9	17232.4	1430.04	17291.7	4.74383	113.348
28	1995.3	17419	1425.73	17477.2	4.67918	114.688
29	1584.9	17600.8	1431.82	17658.9	4.65076	115.883
30	1258.9	17783.2	1446.27	17841.9	4.64952	117.263
31	1000	17980	1470.13	18040	4.67436	118.663
32	794.33	18186.9	1503.28	18248.9	4.72519	120.123
33	630.96	18387.3	1541.84	18451.8	4.79323	121.433
34	501.19	18607.6	1589.35	18675.3	4.88204	122.798
35	398.11	18827.6	1641.79	18899.1	4.98365	124.048
36	316.23	19052.4	1700.96	19128.2	5.10172	125.408
37	251.19	19286.4	1766.95	19367.1	5.23462	126.808
38	199.53	19532	1837.08	19618.2	5.37315	128.128
39	158.49	19800.3	1919.4	19893.1	5.53682	129.538
40	125.89	20064.6	2005.61	20164.6	5.70821	131.053
41	100	20346.5	2095.89	20454.1	5.8813	132.468
42	79.433	20645	2198.89	20761.8	6.07962	133.928
43	63.096	20946.1	2291.06	21071	6.24215	135.488
44	50.119	21410	2381.76	21542.1	6.34777	153.709
45	39.811	21618.8	2558.62	21769.7	6.74965	162.744
46	31.623	21992.5	2695.51	22157.1	6.98758	164.514
47	25.119	22368.5	2829.97	22546.8	7.2105	166.294
48	19.953	22749.8	3019.24	22949.3	7.55983	168.189
49	15.849	23170.9	3192.84	23389.9	7.84567	170.154
50	12.589	23601.4	3391.01	23843.8	8.17619	172.194
51	10	24074	3619.57	24344.6	8.55049	174.539
52	7.9433	24549.6	3812.27	24843.9	8.82687	176.874
53	6.3096	25045	4101.17	25378.5	9.29978	179.224
54	5.0119	25556	4416.1	25934.7	9.80394	181.624
55	3.9811	26105.7	4742.01	26532.9	10.2953	184.089
56	3.1623	26712.4	4995.28	27175.4	10.5921	186.599
57	2.5119	27659.2	5493.6	28199.5	11.2337	189.154
58	1.9953	27796.8	6127.17	28464.1	12.4308	191.884
59	1.5849	28685.6	6633.32	29442.5	13.0204	194.654
60	1.2589	29215.6	7757.3	30227.9	14.87	197.639
61	1	30072.6	8382.76	31219.1	15.5759	204.39
62	0.79433	30903.4	9433.04	32311	16.9745	207.58
63	0.63096	31852.9	10655.2	33587.8	18.4957	211.165
64	0.50119	32776.8	12127.9	34948.6	20.3052	215.03
65	0.39811	33923.3	13983.5	36692.3	22.4019	219.365
66	0.31623	35039.9	16117.6	38569	24.7013	224.14
67	0.25119	36590.8	18909.5	41188	27.3292	229.63
68	0.19953	38139.1	22081.7	44070.3	30.0698	235.86
69	0.15849	40077.6	25774.2	47650	32.7454	243.22
70	0.12589	42045.7	29834.8	51555.4	35.3588	251.77
71	0.1	44177.4	35649.9	56767.6	38.9025	262.096

File: Z_p32_1.txt
Index	Frequency (Hz)	Z' (Ω)	-Z'' (Ω)	Z (Ω)	-Phase (°)	Time (s)
1	1000000	2135.26	3980.81	4517.32	61.7914	20.3812
2	794330	2891.19	4453.62	5309.78	57.0093	21.8362
3	630960	3915.22	4975.6	6331.31	51.8014	23.2712
4	501190	5006.69	5384.36	7352.43	47.0815	24.8712
5	398110	6230.73	5876.37	8564.68	43.3235	31.1464
6	316230	7387.97	6008.67	9522.93	39.1216	32.5314
7	251190	8390.73	5836.05	10220.7	34.82	36.8215
8	199530	9455.96	5831.52	11109.5	31.6623	38.1865
9	158490	10475.4	5743.73	11946.8	28.7362	39.5015
10	125890	11451.7	5579.98	12738.8	25.9782	40.9665
11	100000	12373.4	5373.3	13489.7	23.4736	42.4466
12	79433	13235.4	5100.73	14184.2	21.076	43.8416
13	63096	14052.1	4840.23	14862.4	19.0061	45.2766
14	50119	14779.9	4504.82	15451.2	16.9509	46.6966
15	39811	15482.7	4175.91	16035.9	15.0943	48.0167
16	31623	16033.7	3816.38	16481.7	13.3885	49.4217
17	25119	16555.3	3473.22	16915.7	11.8486	50.7417
18	19953	16985.8	3158.99	17277	10.5354	52.0617
19	15849	17377.2	2879.89	17614.2	9.41	53.4268
20	12589	17728.1	2619.3	17920.5	8.40457	54.7718
21	10000	17984	2410.68	18144.9	7.63473	56.1368
22	7943.3	18275	2230.8	18410.6	6.95958	57.4618
23	6309.6	18524.4	2069.77	18639.6	6.37536	58.8869
24	5011.9	18766.4	1938.23	18866.2	5.89671	60.2719
25	3981.1	18979.1	1840.13	19068.1	5.53783	61.6219
26	3162.3	19199.5	1760.66	19280.1	5.23954	63.022
27	2511.9	19407.7	1703.09	19482.3	5.01507	64.412
28	1995.3	19599.7	1665.77	19670.4	4.85788	65.792
29	1584.9	19806.4	1639.81	19874.2	4.73283	67.117
30	1258.9	20035.8	1629.73	20102	4.65026	68.5271
31	1000	20232.3	1635.61	20298.3	4.62182	69.9121
32	794.33	20450.7	1654.48	20517.5	4.62519	71.3021
33	630.96	20660	1678.29	20728.1	4.64413	72.6671
34	501.19	20896.1	1711.68	20966.1	4.68286	74.2722
35	398.11	21122.9	1757.55	21195.9	4.75641	75.5972
36	316.23	21366	1816.25	21443.1	4.85883	76.8872
37	251.19	21614.3	1877.14	21695.7	4.96352	78.6872
38	199.53	21859.3	1952.71	21946.3	5.10474	79.9773
39	158.49	22130.4	2031.96	22223.5	5.24605	81.3473
40	125.89	22410.7	2127.85	22511.5	5.42386	82.8773
41	100	22695.4	2229.56	22804.6	5.61066	84.2123
42	79.433	23003.4	2343.27	23122.4	5.81646	85.6674
43	63.096	23313.7	2515.21	23448.9	6.15757	87.2024
44	50.119	23760.3	2672	23910	6.41633	105.448
45	39.811	24010.9	2773.56	24170.6	6.58917	118.133
46	31.623	24389.4	2959.55	24568.3	6.91878	119.783
47	25.119	24785.1	3173.22	24987.4	7.29584	121.458
48	19.953	25201.1	3395.87	25428.9	7.67441	123.338
49	15.849	25665.1	3630.32	25920.6	8.05107	125.293
50	12.589	26113.9	3923.07	26406.9	8.54363	127.283
51	10	26610.4	4256.47	26948.7	9.08778	129.668
52	7.9433	27146.7	4611.14	27535.6	9.64026	132.078
53	6.3096	27720.3	5032.15	28173.3	10.289	134.488
54	5.0119	28363.9	5487.25	28889.8	10.9491	136.973
55	3.9811	29027.5	6077.14	29656.8	11.8245	139.408
56	3.1623	29669.1	6734.05	30423.7	12.7879	142.023
57	2.5119	30843.7	7593.94	31764.8	13.8315	144.573
58	1.9953	31465.7	8258.61	32531.5	14.7064	147.309
59	1.5849	32521.6	9136.67	33780.7	15.6922	150.089
60	1.2589	33307.9	10826.4	35023.2	18.0062	154.629
61	1	34558.4	11617.2	36458.8	18.5806	157.799
62	0.79433	35843.6	13048.6	38144.9	20.0036	163.094
63	0.63096	37272.3	14712.6	40071	21.5408	166.599
64	0.50119	38904.7	16675.8	42327.9	23.2015	170.449
65	0.39811	40631.7	18986.5	44848.9	25.0459	174.714
66	0.31623	42753.8	21625.5	47911.9	26.831	179.529
67	0.25119	44812.5	24586.6	51114.2	28.7516	185.029
68	0.19953	47398.4	28000.2	55051.1	30.5721	191.359
69	0.15849	50140.5	32216.2	59598.3	32.7215	198.614
70	0.12589	53657.6	37352.7	65378.6	34.843	207.26
71	0.1	57394.9	42326.1	71313.9	36.407	217.525