Folder: Streamlit_cement_impedance/data/20200205 (part 4)

File: Z_p31_1.txt
Index	Frequency (Hz)	Z' (Ω)	-Z'' (Ω)	Z (Ω)	-Phase (°)	Time (s)
1	1000000	2239.71	3032.87	3770.23	53.5549	70.2251
2	794330	2813.65	3190.14	4253.66	48.5883	71.6201
3	630960	3562.24	3427.63	4943.5	43.8967	73.0351
4	501190	4363.11	3479.29	5580.52	38.57	74.4902
5	398110	5121.95	3497.28	6202.04	34.3253	80.3253
6	316230	5774.98	3386.59	6694.73	30.3884	81.7353
7	251190	6311.45	3178.89	7066.81	26.733	86.7204
8	199530	6886.84	3029.56	7523.75	23.745	88.0654
9	158490	7384.32	2824.53	7906.08	20.932	89.4754
10	125890	7828.38	2607.16	8251.11	18.4198	90.8705
11	100000	8215.86	2381.38	8554.02	16.1643	92.3305
12	79433	8537.95	2166.11	8808.44	14.2358	93.7555
13	63096	8864.45	1949.1	9076.2	12.4008	95.1056
14	50119	9078.56	1761.17	9247.81	10.9786	96.4656
15	39811	9290.74	1580.57	9424.23	9.65491	97.8056
16	31623	9466	1415.11	9571.19	8.50243	99.1556
17	25119	9602.2	1296.82	9689.37	7.69149	100.526
18	19953	9774.07	1181.86	9845.27	6.8946	101.851
19	15849	9880.1	1088.46	9939.88	6.28675	103.191
20	12589	10013.2	1032.06	10066.2	5.88471	104.586
21	10000	10121	967.966	10167.2	5.4631	109.236
22	7943.3	10238	922.754	10279.5	5.15017	110.476
23	6309.6	10339.4	895.771	10378.1	4.95155	111.801
24	5011.9	10453	877.989	10489.8	4.80124	113.161
25	3981.1	10562	870.847	10597.9	4.71342	114.541
26	3162.3	10660.6	869.454	10696	4.66261	115.856
27	2511.9	10768.5	881.757	10804.6	4.6811	117.211
28	1995.3	10891.2	896.54	10928.1	4.70584	118.521
29	1584.9	10998.6	916.584	11036.8	4.7638	119.846
30	1258.9	11123.6	946.811	11163.8	4.86515	121.186
31	1000	11252.3	974.598	11294.4	4.95021	122.581
32	794.33	11382.6	1008.95	11427.2	5.06546	124.031
33	630.96	11524	1050	11571.8	5.20608	125.336
34	501.19	11663	1095.62	11714.3	5.36662	126.721
35	398.11	11817.8	1149.11	11873.6	5.55371	128.031
36	316.23	11972.9	1205.48	12033.4	5.74942	129.391
37	251.19	12149.7	1269.57	12215.8	5.96544	130.771
38	199.53	12320.4	1337.34	12392.7	6.19502	132.026
39	158.49	12513.7	1417.27	12593.7	6.46163	133.416
40	125.89	12707.6	1498.56	12795.6	6.72562	134.841
41	100	12930.8	1588.14	13027.9	7.00191	136.146
42	79.433	13155.3	1690.78	13263.5	7.3238	137.646
43	63.096	13388.6	1773.37	13505.5	7.54513	139.131
44	50.119	13573.3	1821.46	13694.9	7.64313	140.546
45	39.811	13907.4	2018.81	14053.2	8.2594	149.782
46	31.623	14192.3	2142.36	14353.1	8.58412	151.462
47	25.119	14473.3	2280.19	14651.8	8.95305	153.082
48	19.953	14796.5	2424.45	14993.8	9.30541	154.942
49	15.849	15124.7	2599.07	15346.4	9.75064	156.942
50	12.589	15508.6	2772.51	15754.5	10.1358	159.037
51	10	15839.4	2962.97	16114.1	10.5955	161.332
52	7.9433	16250.5	3198.84	16562.3	11.1361	163.697
53	6.3096	16649.3	3421.4	16997.2	11.6125	166.142
54	5.0119	17051.4	3689.33	17445.9	12.2086	168.642
55	3.9811	17521.2	4023.74	17977.3	12.9337	171.052
56	3.1623	18019.5	4398.57	18548.6	13.7177	173.717
57	2.5119	18785.7	4677.25	19359.3	13.9812	176.287
58	1.9953	18901.1	5108.76	19579.3	15.125	179.007
59	1.5849	19796.7	5896.35	20656.1	16.5859	181.792
60	1.2589	20363.7	6634.87	21417.4	18.0465	184.772
61	1	20918.2	7435.71	22200.5	19.5685	191.572
62	0.79433	21688.4	8391.71	23255.3	21.1525	194.822
63	0.63096	22513.1	9555.11	24456.9	22.9975	198.392
64	0.50119	23374.8	10919	25799.3	25.0386	202.688
65	0.39811	24392.4	12511.9	27414.2	27.1553	207.003
66	0.31623	25543.6	14554.8	29399.3	29.6747	211.778
67	0.25119	27002.6	16732.6	31766.6	31.7851	217.268
68	0.19953	28623.6	19442.6	34602.4	34.1863	223.503
69	0.15849	30399.1	22567	37860	36.5886	230.863
70	0.12589	32262.4	26453.6	41721.2	39.3501	239.453
71	0.1	35110.9	30965.1	46814.6	41.4098	249.633

File: Z_p32_1.txt
Index	Frequency (Hz)	Z' (Ω)	-Z'' (Ω)	Z (Ω)	-Phase (°)	Time (s)
1	1000000	2129.68	2823.26	3536.43	52.9715	56.0548
2	794330	2650.29	3022.97	4020.25	48.7584	57.4498
3	630960	3317.67	3171.54	4589.73	43.71	58.9899
4	501190	4057.4	3260.33	5205.02	38.7837	60.5399
5	398110	4719.21	3374.06	5801.31	35.5634	65.8
6	316230	5385.7	3283.32	6307.61	31.368	67.135
7	251190	5848.42	3120.79	6628.98	28.0849	71.3201
8	199530	6408.65	3030.49	7089.05	25.3083	72.6651
9	158490	6933.12	2897.31	7514.16	22.6797	74.1052
10	125890	7403.28	2738.04	7893.38	20.2965	75.4052
11	100000	7835.97	2563.62	8244.67	18.1161	76.7802
12	79433	8224.78	2379.42	8562.04	16.1351	78.1252
13	63096	8577.68	2172.57	8848.54	14.2131	79.5853
14	50119	8867.38	1995.58	9089.16	12.683	80.9603
15	39811	9139.37	1817.83	9318.4	11.2494	82.3053
16	31623	9356.73	1652.85	9501.6	10.0179	83.6353
17	25119	9556.53	1494.8	9672.73	8.89	84.9904
18	19953	9739.22	1354.01	9832.89	7.9149	86.3404
19	15849	9884.7	1244.37	9962.72	7.17512	87.6804
20	12589	10040.3	1161.77	10107.3	6.60042	89.0304
21	10000	10169.7	1079.11	10226.8	6.05704	92.9755
22	7943.3	10287	1014.93	10337	5.63465	94.2655
23	6309.6	10398.4	960.788	10442.7	5.27899	95.6306
24	5011.9	10499.3	925.366	10540	5.03683	97.0506
25	3981.1	10615.5	905.374	10654	4.87484	98.3906
26	3162.3	10731.5	887.052	10768.1	4.72525	99.8456
27	2511.9	10835.2	883.841	10871.2	4.66337	101.696
28	1995.3	10946.4	895.897	10983	4.67887	103.126
29	1584.9	11057	897.345	11093.4	4.63974	104.846
30	1258.9	11177.3	914.614	11214.6	4.67798	106.766
31	1000	11294.8	929.805	11333	4.70608	108.701
32	794.33	11421.1	958.777	11461.2	4.79862	110.161
33	630.96	11545.6	993.891	11588.3	4.92012	111.536
34	501.19	11683.1	1030.85	11728.5	5.04238	112.911
35	398.11	11821.7	1075.29	11870.5	5.1973	114.176
36	316.23	11979.3	1125.52	12032	5.36751	115.526
37	251.19	12134.9	1182.42	12192.4	5.56528	117.826
38	199.53	12290.5	1245.74	12353.5	5.78761	119.246
39	158.49	12466.6	1315.6	12535.8	6.02412	120.681
40	125.89	12647.4	1396.43	12724.3	6.30063	122.186
41	100	12796.1	1475.08	12880.8	6.57581	123.711
42	79.433	13045.2	1575.28	13139.9	6.88546	125.171
43	63.096	13253.7	1678.2	13359.5	7.21647	126.716
44	50.119	13289.6	1911.89	13426.4	8.18663	128.316
45	39.811	13720.1	1922.89	13854.2	7.97809	137.501
46	31.623	13961	2074.32	14114.3	8.45115	139.276
47	25.119	14246.8	2230.91	14420.4	8.89972	141.001
48	19.953	14525.2	2409.15	14723.7	9.41733	143.011
49	15.849	14848.1	2618.13	15077.2	10	145.026
50	12.589	15167.1	2848.91	15432.3	10.6382	147.117
51	10	15549.6	3110.89	15857.8	11.3133	149.452
52	7.9433	15917.7	3380.73	16272.7	11.9908	151.832
53	6.3096	16354.9	3768.25	16783.4	12.9748	154.277
54	5.0119	16772.2	4146.35	17277.2	13.886	156.657
55	3.9811	17270.9	4551.99	17860.7	14.7653	159.137
56	3.1623	17754.6	5065.52	18463.1	15.9238	161.607
57	2.5119	18675.6	5505.68	19470.3	16.4258	164.137
58	1.9953	18660.3	7337.92	20051.3	21.4665	166.772
59	1.5849	19666.1	7048.05	20891	19.7169	169.622
60	1.2589	20412.9	8015.51	21930.2	21.4384	172.577
61	1	21442.7	8966.43	23241.9	22.6926	179.317
62	0.79433	22444.3	10118.2	24619.6	24.2664	182.467
63	0.63096	23561.7	11432.6	26188.9	25.8836	185.992
64	0.50119	24776.5	12959	27960.8	27.6112	189.927
65	0.39811	26167.3	14791.2	30058.4	29.4775	194.242
66	0.31623	27681.6	16827.9	32395.2	31.2957	199.007
67	0.25119	29526.8	19428.4	35345.4	33.3446	204.523
68	0.19953	31476.4	22251.1	38547.1	35.2571	210.753
69	0.15849	33874	25529.6	42417.1	37.004	218.048
70	0.12589	36426.9	29027.5	46578	38.5502	226.593
71	0.1	39131	33813.6	51716.5	40.8307	236.778