Folder: Streamlit_cement_impedance/data/20200826

Note: README.md
# Software KDssZ version 1.0

This software tool works to analyze impedance measurements through a lumped circuital model.

## The repository contains:

- The Python module called [KDssZ.py](https://github.com/dantrica/Streamlit_cement_impedance/blob/c79735cefb679f8cb21de758db89e5011d7d15d4/KDssZ.py) contains the algorithms to optimize the electrical impedance measurements.
- The Python module called [appZ.py](https://github.com/dantrica/Streamlit_cement_impedance/blob/b421c1652a15b18d4e0220819822e362abc5bec6/appZ.py) contains the code to deploy the application on the Streamlit platform.
- All [data](https://github.com/dantrica/Streamlit_cement_impedance/tree/c79735cefb679f8cb21de758db89e5011d7d15d4/data) acquired during the experimental campaign is located in this repository Streamlit_cement_impedance/data/.
- The [Figures](https://github.com/dantrica/Streamlit_cement_impedance/tree/c79735cefb679f8cb21de758db89e5011d7d15d4/figures) folder contains an image describing the lumped circuit model.

## The left sidebar functionalities:

The user can upload the impedance measurements in format .txt. Moreover, this object contains the elements that will be presented in the left sidebar, such as i) the uploading file option, ii) the lumped circuit model, iii) Add and Remove buttons to move data in the Optimization zone, iv) Run and Reset buttons to start and clear the optimization.

## Project Description: 

$\texttt{KDssZ}$ has been developed to optimize experimental electrical impedance data to a lumped circuit model. This approach allows users to correlate the interactions among the components in the composite-electrodes, cement, nanoparticles, and pores with the measured impedance, which is analyzed across three frequency ranges: high, medium, and low. Although the software has been validated with impedance measurements from gold nanoparticles/cement-based composites, it can also be used to study the electrical properties of other cement-based composites. KDssZ is deployed on the Streamlit platform, and in line with the principles of open science, it allows researchers working on similar studies to use this tool to explore new research questions related to cement-based composites.

## Usage instructions:

The main functionalities of the software KDssZ are displayed in Figure~\ref{}, and enumerated according to the following list:

1. Push button \texttt{Browse Files} to upload \texttt{.txt} files with electrical impedance spectroscopy data.
2. Help menu explaining the format files to be received; help hints boxes to report whether a file was added previously or it is already in the optimization zone; and help tips on buttons.
3. Choosing the file data since Select tag.
4. Buttons $\texttt{Add data}$ and $\texttt{Remove}$, to add or remove data to the optimization zone.
5. Buttons $\texttt{Run}$ and $\texttt{Reset}$, to start the optimization, create the plots and return the DataFrame with the parameters.
6. Figures: wide mode and saving options.
7. T

File: Z_p27_1.txt
Index	Frequency (Hz)	Z' (Ω)	-Z'' (Ω)	Z (Ω)	-Phase (°)	Time (s)
1	1000000	3361.03	6517.46	7333.07	62.72	13.907
2	794330	4906.8	6846.27	8423.07	54.3704	15.5071
3	630960	6539.24	7517.16	9963.4	48.9797	17.1121
4	501190	8152.85	8091.27	11486.4	44.7828	18.6871
5	398110	10412.8	9190.6	13888.6	41.4325	24.0772
6	316230	12283.4	9641.8	15615.6	38.13	25.4322
7	251190	13825.3	9505.75	16777.9	34.5109	30.1823
8	199530	15612.1	9562.13	18307.7	31.4867	31.6624
9	158490	17349.6	9442.87	19752.8	28.5582	33.2124
10	125890	19027.5	9187.38	21129.5	25.7734	34.6874
11	100000	20562.8	8811.1	22371.1	23.1949	36.1574
12	79433	22021.9	8362.83	23556.3	20.7943	37.6525
13	63096	23304.3	7886.29	24602.6	18.696	39.1225
14	50119	24518.4	7302.31	25582.7	16.5851	40.8075
15	39811	25574.8	6688.42	26434.9	14.656	42.3426
16	31623	26452.2	6072.11	27140.2	12.9283	43.7926
17	25119	27234.7	5586.26	27801.7	11.5915	45.2526
18	19953	27956.8	5124.35	28422.6	10.3867	46.6676
19	15849	28597.5	4704.45	28981.9	9.34181	48.0627
20	12589	29165.8	4315.47	29483.3	8.41662	49.5077
21	10000	29734.1	3944.8	29994.6	7.55727	51.9277
22	7943.3	30226	3659.37	30446.7	6.90304	53.2978
23	6309.6	30655	3412.41	30844.4	6.35182	54.7628
24	5011.9	31067.8	3205.85	31232.7	5.89144	56.2678
25	3981.1	31451.6	3032.57	31597.4	5.50746	57.7528
26	3162.3	31819.3	2891.77	31950.4	5.19285	59.1379
27	2511.9	32167.2	2776.64	32286.9	4.93348	60.6179
28	1995.3	32508.7	2688.85	32619.7	4.72827	62.0129
29	1584.9	32859.6	2619.6	32963.8	4.55804	63.3629
30	1258.9	33198.5	2571.69	33297.9	4.42951	64.868
31	1000	33538.1	2535.21	33633.8	4.32288	66.363
32	794.33	33898.9	2516.01	33992.2	4.24475	68.598
33	630.96	34239	2505.64	34330.5	4.18549	70.0131
34	501.19	34585.7	2503	34676.2	4.13934	71.5281
35	398.11	34935.6	2510.55	35025.7	4.11034	73.0181
36	316.23	35294.6	2517.66	35384.3	4.08015	74.4331
37	251.19	35665.8	2533.48	35755.7	4.06311	76.0532
38	199.53	36034.4	2549.55	36124.5	4.04712	77.5432
39	158.49	36411.6	2568.78	36502.1	4.03544	79.0432
40	125.89	36755.7	2585.7	36846.5	4.02403	80.6383
41	100	37146	2607.42	37237.4	4.01523	82.1483
42	79.433	37523.8	2632.61	37616	4.01321	83.8783
43	63.096	37920.8	2655.08	38013.6	4.00512	85.4484
44	50.119	38326.6	2683.27	38420.4	4.00478	86.8784
45	39.811	38695.9	2691.4	38789.4	3.97867	98.4536
46	31.623	39093	2709.05	39186.8	3.96412	102.149
47	25.119	39493.5	2722.78	39587.3	3.94388	109.924
48	19.953	39872.2	2738.92	39966.2	3.92962	113.869
49	15.849	40297.9	2756.02	40392	3.91243	116.334
50	12.589	40684.4	2770.35	40778.6	3.89547	118.844
51	10	41094.8	2784.08	41189	3.87574	121.674
52	7.9433	41473.2	2798.35	41567.5	3.8601	124.349
53	6.3096	41859.5	2837.99	41955.6	3.87861	127.339
54	5.0119	42234.8	2853.38	42331.1	3.86502	130.219
55	3.9811	42618.1	2902.76	42716.8	3.89646	133.174
56	3.1623	42969.2	2978.9	43072.3	3.96576	136.124
57	2.5119	43334	3083.6	43443.6	4.07024	139.299
58	1.9953	43618.3	3257.12	43739.7	4.27054	142.344
59	1.5849	44020	3355.71	44147.8	4.3593	145.649
60	1.2589	44345.7	3662.27	44496.6	4.72104	149.185
61	1	44686.2	3998.6	44864.8	5.1133	155.105
62	0.79433	45054.1	4420.02	45270.4	5.60306	158.745
63	0.63096	45393.2	4973.54	45664.8	6.25272	162.915
64	0.50119	45694.3	5582.62	46034.1	6.96548	167.345
65	0.39811	46093.8	6535.63	46554.8	8.07017	171.945
66	0.31623	46435	7679.27	47065.7	9.39041	177.245
67	0.25119	47090.7	8989.86	47941.1	10.808	183.11
68	0.19953	47528.4	10766.3	48732.5	12.7634	189.765
69	0.15849	48102	12735.4	49759.3	14.8292	197.6
70	0.12589	48936.2	15307.2	51274.3	17.3696	206.761
71	0.1	50156	18084	53316.6	19.827	217.751

File: Z_p28_1.txt
Index	Frequency (Hz)	Z' (Ω)	-Z'' (Ω)	Z (Ω)	-Phase (°)	Time (s)
1	1000000	3356.74	7299.56	8034.38	65.3044	145.496
2	794330	5131.89	7723.42	9272.95	56.3976	149.077
3	630960	7024.25	8621.7	11120.9	50.8297	155.267
4	501190	9023.95	9422.07	13046.3	46.2364	162.312
5	398110	11470.4	11093.6	15957.4	44.0433	196.512
6	316230	13736.5	11695.4	18040.9	40.4113	201.007
7	251190	15645.8	11934.4	19677.9	37.3358	216.513
8	199530	17900.6	12209.9	21668.2	34.2977	223.068
9	158490	20149	12263.4	23587.5	31.3263	229.708
10	125890	22344.1	12118.7	25419	28.4739	236.393
11	100000	24433.9	11802.2	27135	25.7818	240.578
12	79433	26415.2	11327.7	28741.6	23.2113	247.338
13	63096	28287.1	10732	30254.6	20.7765	251.463
14	50119	30010.9	10020.5	31639.6	18.4639	257.174
15	39811	31556.1	9325.99	32905.3	16.4644	261.954
16	31623	32836.6	8514.99	33922.7	14.5374	266.949
17	25119	33949.5	7857.66	34847	13.0317	271.019
18	19953	34990.4	7207.34	35725	11.639	275.339
19	15849	35925.6	6551.98	36518.1	10.3358	278.094
20	12589	36725.6	6046.13	37220	9.34874	284.579
21	10000	37572.2	5515.74	37974.9	8.35157	290.259
22	7943.3	38256.9	5090.39	38594.1	7.57913	293.314
23	6309.6	38857.3	4719.63	39142.9	6.92526	296.114
24	5011.9	39419.7	4403.79	39664.9	6.3744	299.209
25	3981.1	39945.2	4141.8	40159.3	5.91967	301.884
26	3162.3	40430.4	3921.36	40620.1	5.53982	304.199
27	2511.9	40910.3	3745.58	41081.5	5.23118	307.969
28	1995.3	41367.9	3604.64	41524.7	4.97995	312.565
29	1584.9	41828.5	3496.01	41974.4	4.77765	321.1
30	1258.9	42277.3	3412.11	42414.8	4.61421	324.48
31	1000	42737.4	3355.31	42868.9	4.48909	327.25
32	794.33	43158.3	3313.01	43285.3	4.38965	330.48
33	630.96	43627.2	3291.19	43751.2	4.31416	332.53
34	501.19	44072.1	3277.69	44193.8	4.25332	338.33
35	398.11	44564.2	3276.9	44684.5	4.20551	342.835
36	316.23	44993.2	3284.79	45113	4.17555	345.01
37	251.19	45479.4	3300.26	45598.9	4.15046	346.57
38	199.53	45960.2	3316.82	46079.8	4.12772	348.28
39	158.49	46426.5	3339.43	46546.5	4.11416	351.18
40	125.89	46926.8	3358.09	47046.8	4.09312	355.555
41	100	47401.6	3383.58	47522.2	4.08291	359.25
42	79.433	47902.4	3409.03	48023.5	4.07066	362.97
43	63.096	48415.8	3411.94	48535.9	4.03106	367.016
44	50.119	48937.3	3442.81	49058.3	4.02421	378.066
45	39.811	49450	3494.11	49573.3	4.04178	394.956
46	31.623	49953.5	3531.2	50078.2	4.04349	397.491
47	25.119	50484.8	3552.96	50609.7	4.02566	400.896
48	19.953	51009.3	3590.95	51135.5	4.02687	405.781
49	15.849	51500.2	3620.46	51627.3	4.02128	410.501
50	12.589	52024.8	3654.44	52153	4.01809	414.306
51	10	52557.2	3702.9	52687.4	4.0301	418.256
52	7.9433	53041.8	3752.82	53174.4	4.04705	422.522
53	6.3096	53563.5	3834.68	53700.6	4.09489	426.352
54	5.0119	54041.9	3910.98	54183.2	4.13924	430.347
55	3.9811	54510.7	4050.1	54661	4.24921	433.102
56	3.1623	54978.7	4222.66	55140.6	4.392	435.887
57	2.5119	55464.9	4455.42	55643.6	4.59263	438.902
58	1.9953	55863.8	4723.46	56063.1	4.83304	442.387
59	1.5849	56429.4	5102.07	56659.6	5.16636	450.082
60	1.2589	56858.4	5721.83	57145.6	5.7465	456.927
61	1	57318.5	6345.28	57668.6	6.31704	464.127
62	0.79433	57817.5	7175.39	58261.1	7.07447	469.412
63	0.63096	58346.6	8275.68	58930.6	8.07279	473.958
64	0.50119	58904.4	9490.99	59664.2	9.15313	479.048
65	0.39811	59654	11223	60700.5	10.6548	484.453
66	0.31623	60248	13253.4	61688.6	12.4064	491.583
67	0.25119	61151.1	15599.8	63109.5	14.3111	499.863
68	0.19953	62173.5	18800.2	64953.8	16.8244	507.823
69	0.15849	63707	22105.6	67433.2	19.1362	519.453
70	0.12589	65379.2	27043.4	70751.6	22.4719	530.094
71	0.1	67183.9	32213.8	74507.8	25.6171	542.194

File: Z_p29_1.txt
Index	Frequency (Hz)	Z' (Ω)	-Z'' (Ω)	Z (Ω)	-Phase (°)	Time (s)
1	1000000	3352.15	6256.7	7098.11	61.819	42.3916
2	794330	4736.05	6574.57	8102.79	54.2326	46.8567
3	630960	6161.89	7181.96	9463.06	49.3715	52.2468
4	501190	7824.82	7818.13	11061.2	44.9755	55.9668
5	398110	9688.8	8962.27	13198.3	42.7692	70.1921
6	316230	11270.5	9332.99	14633.2	39.6277	73.5672
7	251190	12846.8	9613.35	16045.5	36.8077	88.5274
8	199530	14586	9948.79	17655.8	34.2971	94.3326
9	158490	16355.5	10166	19257.5	31.8637	103.038
10	125890	18153.1	10248.3	20846.2	29.4467	106.408
11	100000	19920	10198	22378.7	27.1101	109.683
12	79433	21689.3	10044	23902	24.8482	113.033
13	63096	23391.5	9733.97	25336	22.5938	116.553
14	50119	25085.7	9271.11	26744.1	20.2832	120.428
15	39811	26574.8	8783.01	27988.6	18.2888	123.913
16	31623	27940.5	8151.02	29105.1	16.2634	128.383
17	25119	29110.1	7501.93	30061.2	14.4512	132.738
18	19953	30192.2	6888.35	30968	12.8521	136.378
19	15849	31122.5	6238.07	31741.5	11.3339	140.413
20	12589	31885.6	5685.81	32388.6	10.1107	144.833
21	10000	32697.8	5129.6	33097.8	8.91583	152.639
22	7943.3	33316.9	4661.3	33641.4	7.96444	157.634
23	6309.6	33863.6	4246.68	34128.8	7.14789	161.534
24	5011.9	34361	3889.92	34580.5	6.4588	165.389
25	3981.1	34810.2	3588.64	34994.6	5.88593	171.219
26	3162.3	35197.3	3332.24	35354.7	5.40824	175.679
27	2511.9	35602	3121.59	35738.6	5.0109	179.564
28	1995.3	35966.1	2948.62	36086.7	4.68682	182.919
29	1584.9	36297.5	2807.08	36405.9	4.42219	186.539
30	1258.9	36646.9	2695.12	36745.9	4.20613	190.059
31	1000	36988.1	2604.72	37079.7	4.02815	194.039
32	794.33	37326.8	2536.51	37412.9	3.88752	199.209
33	630.96	37665.9	2482.64	37747.6	3.77102	206.12
34	501.19	37988.4	2442.87	38066.8	3.67938	211.86
35	398.11	38333.6	2416.42	38409.7	3.60697	221.04
36	316.23	38674.4	2394.21	38748.5	3.54248	224.84
37	251.19	39002.1	2380.75	39074.7	3.49309	227.72
38	199.53	39331.7	2373.51	39403.2	3.45339	230.905
39	158.49	39680.8	2368.9	39751.5	3.41644	239.845
40	125.89	40007.5	2369.06	40077.6	3.38884	244.27
41	100	40368.5	2364.62	40437.7	3.35232	248.255
42	79.433	40704.2	2367.04	40772.9	3.32813	251.75
43	63.096	41041	2356.48	41108.6	3.28618	255.021
44	50.119	41419.6	2390.23	41488.6	3.30274	257.811
45	39.811	41751.8	2361.95	41818.6	3.23783	268.481
46	31.623	42103.3	2358.31	42169.3	3.20593	272.431
47	25.119	42423.8	2345.18	42488.6	3.16408	275.931
48	19.953	42789.6	2341.04	42853.5	3.13157	281.086
49	15.849	43115.5	2332.23	43178.5	3.09626	284.531
50	12.589	43456.5	2327.66	43518.7	3.06601	291.221
51	10	43797	2320.78	43858.4	3.03323	296.061
52	7.9433	44117.5	2324.18	44178.7	3.01564	299.966
53	6.3096	44419.7	2324.26	44480.5	2.99527	303.971
54	5.0119	44733.9	2347.76	44795.5	3.00429	308.052
55	3.9811	45019	2385.99	45082.2	3.03382	313.822
56	3.1623	45322	2440.49	45387.7	3.08227	316.772
57	2.5119	45664.8	2523.39	45734.4	3.16289	323.502
58	1.9953	45901.4	2593.77	45974.7	3.2342	328.222
59	1.5849	46176.8	2805.32	46261.9	3.47654	333.667
60	1.2589	46471	3017.66	46568.9	3.71537	340.102
61	1	46743.2	3279.71	46858.1	4.01355	354.662
62	0.79433	47043.4	3631.4	47183.4	4.41405	363.363
63	0.63096	47356.4	4038.43	47528.3	4.87425	371.053
64	0.50119	47665.6	4550.5	47882.3	5.45334	376.213
65	0.39811	47989.7	5254.23	48276.5	6.24824	383.373
66	0.31623	48352.3	6111.25	48736.9	7.20343	393.433
67	0.25119	48808.1	7230.17	49340.8	8.4262	400.743
68	0.19953	49107.6	8573.88	49850.5	9.90366	409.643
69	0.15849	49832.3	10128.7	50851.3	11.4892	421.579
70	0.12589	50455.7	12309.5	51935.6	13.7105	431.654
71	0.1	51462.9	14409.3	53442.1	15.642	442.424

File: Z_p30_1.txt
Index	Frequency (Hz)	Z' (Ω)	-Z'' (Ω)	Z (Ω)	-Phase (°)	Time (s)
1	1000000	3838.74	6475.86	7528.13	59.3415	34.3874
2	794330	5306.86	6526.64	8411.89	50.8852	36.5974
3	630960	6944.97	6997.26	9858.72	45.2149	38.7625
4	501190	8572.37	7369.08	11304.4	40.6834	42.0975
5	398110	10586.4	8170.53	13372.7	37.6607	50.6827
6	316230	12102.2	8356.46	14707	34.6246	52.9127
7	251190	13501.3	8087.32	15738.1	30.9218	60.6529
8	199530	15001.8	8009.89	17006.2	28.099	62.8579
9	158490	16427.2	7806.92	18188	25.419	65.203
10	125890	17756.6	7498.76	19275.1	22.8948	67.143
11	100000	18973.2	7124.99	20266.9	20.5826	69.238
12	79433	20099.1	6709.3	21189.3	18.4596	71.4781
13	63096	21156.7	6278.69	22068.7	16.5293	74.0431
14	50119	22017.5	5773.6	22762	14.6937	76.1732
15	39811	22844	5325.75	23456.6	13.1233	78.7882
16	31623	23530.3	4867.17	24028.4	11.6866	81.1483
17	25119	24125.4	4440.84	24530.7	10.4299	83.6683
18	19953	24694.4	4113.05	25034.6	9.45627	86.1583
19	15849	25208.9	3760.86	25487.9	8.48525	89.3734
20	12589	25657.5	3452.95	25888.8	7.66475	107.714
21	10000	26133.7	3201.88	26329.1	6.98503	130.404
22	7943.3	26523.7	2990.51	26691.7	6.43285	137.309
23	6309.6	26882.8	2809.81	27029.2	5.96694	147.774
24	5011.9	27236.4	2662.45	27366.2	5.58312	151.505
25	3981.1	27549.2	2536.74	27665.7	5.26099	157.24
26	3162.3	27869.7	2437.28	27976.1	4.99796	159.51
27	2511.9	28157.4	2356.44	28255.8	4.78383	162.14
28	1995.3	28463.4	2297.38	28555.9	4.61455	164.165
29	1584.9	28756.8	2254.55	28845.1	4.48285	167.34
30	1258.9	29070.6	2224.48	29155.6	4.37575	170.36
31	1000	29371.7	2206.31	29454.4	4.29581	172.25
32	794.33	29660	2194.78	29741.1	4.23206	174.255
33	630.96	29978.8	2193.48	30058.9	4.18474	177.75
34	501.19	30293.3	2198.48	30373	4.15087	180.27
35	398.11	30597.7	2206.09	30677.1	4.12388	182.275
36	316.23	30920.1	2218.55	30999.6	4.104	184.405
37	251.19	31256.8	2233.62	31336.5	4.08743	186.75
38	199.53	31576.2	2253.38	31656.5	4.08189	189.27
39	158.49	31913.8	2272.23	31994.6	4.07252	191.885
40	125.89	32238.3	2286.98	32319.4	4.05775	197.255
41	100	32567.4	2301.57	32648.6	4.04242	199.855
42	79.433	32916.5	2318.54	32998.1	4.02908	203.306
43	63.096	33249.7	2333	33331.4	4.01363	205.781
44	50.119	33606.7	2338.22	33688	3.98	207.926
45	39.811	33968.6	2340.72	34049.1	3.94193	220.181
46	31.623	34321.7	2338.2	34401.2	3.89732	231.591
47	25.119	34679.3	2327.58	34757.3	3.83977	234.171
48	19.953	35034.2	2309.84	35110.3	3.77211	238.341
49	15.849	35371.2	2284.07	35444.9	3.6947	241.011
50	12.589	35723.9	2252.79	35794.8	3.60836	244.356
51	10	36057.9	2219.4	36126.1	3.52217	247.556
52	7.9433	36384.2	2170.32	36448.9	3.41365	252.671
53	6.3096	36690.2	2134.26	36752.3	3.32912	255.956
54	5.0119	36992.6	2095.86	37051.9	3.24269	259.432
55	3.9811	37274.5	2060.61	37331.4	3.16421	263.307
56	3.1623	37545.6	2037.28	37600.8	3.10591	267.277
57	2.5119	37767.5	2017.99	37821.4	3.05851	270.707
58	1.9953	38046.7	2059.42	38102.4	3.09832	279.037
59	1.5849	38239.2	2067.97	38295	3.09554	283.077
60	1.2589	38481.8	2165.7	38542.7	3.22113	289.057
61	1	38680.8	2282.33	38748.1	3.37677	300.862
62	0.79433	38887.3	2440.95	38963.8	3.59173	305.427
63	0.63096	39084.4	2644.67	39173.8	3.87106	311.808
64	0.50119	39277.7	2946.96	39388.1	4.2908	317.213
65	0.39811	39497.9	3320.75	39637.2	4.80578	323.923
66	0.31623	39718.3	3853.79	39904.8	5.54195	334.998
67	0.25119	39922.8	4545.98	40180.8	6.49625	344.503
68	0.19953	40158.2	5271.08	40502.6	7.47778	352.208
69	0.15849	40454.2	6407.99	40958.6	9.00093	360.823
70	0.12589	40785.4	7609.03	41489.1	10.5678	370.469
71	0.1	41274.5	9240.66	42296.3	12.6194	382.104

File: Z_p31_1.txt
Index	Frequency (Hz)	Z' (Ω)	-Z'' (Ω)	Z (Ω)	-Phase (°)	Time (s)
1	1000000	3339.92	6895.37	7661.68	64.1558	35.0274
2	794330	4965.17	7313.54	8839.73	55.8274	37.4324
3	630960	6730.45	8061.92	10502.1	50.1434	44.2026
4	501190	8518.02	8835.99	12273.2	46.0497	46.4276
5	398110	10881.1	10132.6	14868.3	42.9599	53.8878
6	316230	12979.7	10542.4	16721.7	39.0842	60.6929
7	251190	14714.2	10600.7	18135.1	35.7706	72.6431
8	199530	16743.6	10691.5	19866	32.5598	74.6231
9	158490	18731.1	10594.7	21519.8	29.4934	76.8932
10	125890	20621.3	10283.5	23043.2	26.5048	78.9832
11	100000	22372.1	9844.14	24442.1	23.7504	81.0483
12	79433	24017.2	9297.15	25753.9	21.1616	83.0783
13	63096	25445.7	8688.55	26888.2	18.8527	85.2033
14	50119	26814.6	7973.49	27975	16.5602	92.6085
15	39811	27945.7	7272.11	28876.4	14.5862	94.8585
16	31623	28853.4	6567.76	29591.4	12.8235	96.9335
17	25119	29742	5954.05	30332.2	11.3204	98.9986
18	19953	30451	5445.93	30934.2	10.1397	100.879
19	15849	31114.9	4950.55	31506.3	9.04029	102.909
20	12589	31707.9	4578.03	32036.6	8.21568	105.024
21	10000	32299.3	4156.78	32565.7	7.33341	108.504
22	7943.3	32798.6	3857.93	33024.7	6.70858	110.609
23	6309.6	33235.9	3606.68	33431	6.19337	117.584
24	5011.9	33668.2	3403.87	33839.8	5.77302	119.654
25	3981.1	34068.8	3238.5	34222.3	5.4301	121.799
26	3162.3	34440.6	3114.48	34581.1	5.16722	123.634
27	2511.9	34819.1	3022.28	34950	4.96081	125.749
28	1995.3	35201.7	2963.13	35326.2	4.81157	127.454
29	1584.9	35568.5	2923.96	35688.4	4.69952	135.229
30	1258.9	35938.8	2910.55	36056.5	4.63006	137.309
31	1000	36336.3	2919.83	36453.4	4.59418	139.319
32	794.33	36716.4	2946.59	36834.4	4.58831	146.359
33	630.96	37113.6	2988.58	37233.7	4.60382	148.39
34	501.19	37542.3	3049.27	37666	4.64349	150.475
35	398.11	37963.6	3117.63	38091.4	4.69467	152.555
36	316.23	38385.6	3204.71	38519.1	4.77241	154.645
37	251.19	38827	3302.38	38967.1	4.86152	156.41
38	199.53	39282.5	3417	39430.8	4.97138	164.29
39	158.49	39728.3	3539.33	39885.7	5.09094	166.345
40	125.89	40228.4	3687.05	40397	5.23669	168.475
41	100	40765.6	3850.83	40947.1	5.3963	175.645
42	79.433	41303.9	4023.14	41499.3	5.56326	177.655
43	63.096	41817.3	4229.36	42030.6	5.77521	186.27
44	50.119	42448.1	4437.05	42679.4	5.96739	188.325
45	39.811	43068.1	4687.18	43322.4	6.21116	198.945
46	31.623	43701	4953.02	43980.7	6.46625	201.42
47	25.119	44367.7	5254.62	44677.8	6.75426	209.216
48	19.953	45083.5	5580.45	45427.6	7.05619	211.826
49	15.849	45849.7	5951.51	46234.3	7.39592	214.446
50	12.589	46615.3	6353.92	47046.4	7.76189	222.121
51	10	47475.2	6812.5	47961.5	8.16598	225.286
52	7.9433	48321	7322.93	48872.7	8.61747	228.436
53	6.3096	49279.8	7903.24	49909.5	9.11122	235.601
54	5.0119	50248.7	8558	50972.3	9.66546	244.121
55	3.9811	51303.8	9310.32	52141.8	10.2858	247.181
56	3.1623	52416.4	10174.3	53394.7	10.9849	250.201
57	2.5119	53623.1	11174.9	54775.1	11.7718	253.656
58	1.9953	54871.2	12391.2	56252.9	12.7253	262.222
59	1.5849	56275.4	13692	57917.1	13.6746	265.652
60	1.2589	57773	15271.4	59757.3	14.8066	274.352
61	1	59358.7	17139.8	61783.7	16.1061	285.072
62	0.79433	61166.7	19346.2	64153.3	17.5514	288.942
63	0.63096	63057	21882.8	66746.1	19.1384	297.627
64	0.50119	65075.4	24941.2	69691.3	20.9702	308.027
65	0.39811	67339.4	28713.3	73205.5	23.0933	323.958
66	0.31623	70199.5	33030.1	77581.9	25.1978	334.093
67	0.25119	73186.5	38578.3	82731.8	27.7947	346.153
68	0.19953	76437.3	44751.1	88573.8	30.3473	354.633
69	0.15849	80729	52220.2	96146.3	32.8972	366.859
70	0.12589	85473.1	60096.3	104485	35.1111	378.099
71	0.1	90317.9	70756.6	114734	38.0757	388.864

File: Z_p32_1.txt
Index	Frequency (Hz)	Z' (Ω)	-Z'' (Ω)	Z (Ω)	-Phase (°)	Time (s)
1	1000000	3216.69	6618.44	7358.73	64.0793	25.7022
2	794330	4763.31	7074.82	8528.9	56.0485	27.6273
3	630960	6390.06	7860.67	10130.3	50.8918	32.0723
4	501190	8082.23	8625.73	11820.6	46.8631	34.3474
5	398110	10283.1	9950.72	14309.4	44.0589	44.5376
6	316230	12159.5	10737.4	16221.8	41.4459	47.8226
7	251190	13939.3	10661.9	17549.4	37.4116	58.0478
8	199530	15920.5	10963.3	19330.2	34.5523	61.2879
9	158490	17951.1	11051.6	21080.3	31.6185	64.0329
10	125890	19922.3	10983.4	22749.4	28.8684	66.148
11	100000	21803.2	10755.4	24311.7	26.257	69.133
12	79433	23640.9	10398.2	25826.7	23.7417	71.1081
13	63096	25334.8	9915.68	27206.2	21.3746	74.9581
14	50119	26877.2	9374.11	28465	19.2275	77.2682
15	39811	28406.9	8762.96	29727.7	17.144	79.6582
16	31623	29680.9	8036.79	30749.7	15.1509	81.7583
17	25119	30779.3	7458.26	31670	13.621	84.2933
18	19953	31817.4	6847.3	32545.9	12.1452	86.3133
19	15849	32697.1	6234.95	33286.2	10.796	88.4684
20	12589	33526.1	5710.21	34008.9	9.66594	90.8684
21	10000	34281.3	5196.56	34673	8.61959	96.0485
22	7943.3	34911.5	4787.04	35238.2	7.80766	99.8536
23	6309.6	35494.8	4430.3	35770.2	7.11461	103.244
24	5011.9	35986.1	4120.4	36221.2	6.53191	106.724
25	3981.1	36500.3	3868.25	36704.7	6.04954	109.804
26	3162.3	36953.7	3662.54	37134.7	5.6602	113.519
27	2511.9	37380.9	3493.98	37543.8	5.33989	116.654
28	1995.3	37821.1	3368.22	37970.7	5.08915	118.884
29	1584.9	38224.1	3274.37	38364.1	4.89614	121.854
30	1258.9	38629	3211.11	38762.2	4.7519	124.269
31	1000	39056.5	3172.66	39185.1	4.64409	127.589
32	794.33	39458.9	3158.25	39585.1	4.57613	129.839
33	630.96	39886.6	3165.55	40012	4.5377	131.779
34	501.19	40324.4	3190.82	40450.4	4.52432	134.449
35	398.11	40752.6	3231.17	40880.5	4.53335	136.834
36	316.23	41173.7	3288.92	41304.9	4.56704	139.374
37	251.19	41640.2	3361.56	41775.7	4.6154	141.774
38	199.53	42094.3	3448.84	42235.4	4.68385	144.729
39	158.49	42581.3	3550.16	42729	4.76594	146.944
40	125.89	43058.2	3664.72	43213.9	4.86476	149.81
41	100	43549.6	3804.09	43715.4	4.99216	152.835
42	79.433	44042.8	3957.23	44220.2	5.13422	155.645
43	63.096	44599.2	4146.19	44791.5	5.31127	158.21
44	50.119	45152.5	4340.19	45360.6	5.49057	160.72
45	39.811	45726.5	4574.6	45954.7	5.71302	170.97
46	31.623	46318.7	4837.08	46570.6	5.96181	173.175
47	25.119	46949.5	5145.98	47230.7	6.25503	175.84
48	19.953	47606	5502.76	47923	6.59354	179.175
49	15.849	48298.1	5918	48659.4	6.98566	182.8
50	12.589	49032.7	6397.11	49448.2	7.43318	186.105
51	10	49821.4	6936.78	50302	7.9265	190.42
52	7.9433	50664.7	7572.79	51227.5	8.501	193.875
53	6.3096	51566.3	8299.3	52229.9	9.14301	196.71
54	5.0119	52502.9	9150.1	53294.3	9.8861	199.61
55	3.9811	53553.4	10140.9	54505.1	10.7226	203.581
56	3.1623	54732.2	11301.8	55886.9	11.6672	206.816
57	2.5119	56000.4	12644.7	57410.3	12.7238	210.221
58	1.9953	57382.4	14239.9	59122.9	13.9368	213.866
59	1.5849	58961.3	16004.2	61094.7	15.1862	217.456
60	1.2589	60651.2	18049.6	63280	16.5728	220.996
61	1	62573.1	20491.1	65842.9	18.1323	227.691
62	0.79433	64691.6	23290	68756.3	19.7997	231.316
63	0.63096	67143.1	26466.8	72171.2	21.5136	235.391
64	0.50119	69789.9	30307.8	76086.7	23.474	240.426
65	0.39811	72737.1	34821.1	80642.4	25.5816	245.481
66	0.31623	75719.9	40087	85676.6	27.8973	251.271
67	0.25119	79661.3	46661.9	92321.5	30.3598	257.227
68	0.19953	84119.5	53446.4	99662.5	32.4304	264.462
69	0.15849	88950.4	62763.1	108864	35.2067	272.952
70	0.12589	94761.4	72996.3	119617	37.6076	282.287
71	0.1	101272	84423.6	131846	39.8157	293.422