Folder: Streamlit_cement_impedance/data/20200304

Note: README.md
# Software KDssZ version 1.0

This software tool works to analyze impedance measurements through a lumped circuital model.

## The repository contains:

- The Python module called [KDssZ.py](https://github.com/dantrica/Streamlit_cement_impedance/blob/c79735cefb679f8cb21de758db89e5011d7d15d4/KDssZ.py) contains the algorithms to optimize the electrical impedance measurements.
- The Python module called [appZ.py](https://github.com/dantrica/Streamlit_cement_impedance/blob/b421c1652a15b18d4e0220819822e362abc5bec6/appZ.py) contains the code to deploy the application on the Streamlit platform.
- All [data](https://github.com/dantrica/Streamlit_cement_impedance/tree/c79735cefb679f8cb21de758db89e5011d7d15d4/data) acquired during the experimental campaign is located in this repository Streamlit_cement_impedance/data/.
- The [Figures](https://github.com/dantrica/Streamlit_cement_impedance/tree/c79735cefb679f8cb21de758db89e5011d7d15d4/figures) folder contains an image describing the lumped circuit model.

## The left sidebar functionalities:

The user can upload the impedance measurements in format .txt. Moreover, this object contains the elements that will be presented in the left sidebar, such as i) the uploading file option, ii) the lumped circuit model, iii) Add and Remove buttons to move data in the Optimization zone, iv) Run and Reset buttons to start and clear the optimization.

## Project Description: 

$\texttt{KDssZ}$ has been developed to optimize experimental electrical impedance data to a lumped circuit model. This approach allows users to correlate the interactions among the components in the composite-electrodes, cement, nanoparticles, and pores with the measured impedance, which is analyzed across three frequency ranges: high, medium, and low. Although the software has been validated with impedance measurements from gold nanoparticles/cement-based composites, it can also be used to study the electrical properties of other cement-based composites. KDssZ is deployed on the Streamlit platform, and in line with the principles of open science, it allows researchers working on similar studies to use this tool to explore new research questions related to cement-based composites.

## Usage instructions:

The main functionalities of the software KDssZ are displayed in Figure~\ref{}, and enumerated according to the following list:

1. Push button \texttt{Browse Files} to upload \texttt{.txt} files with electrical impedance spectroscopy data.
2. Help menu explaining the format files to be received; help hints boxes to report whether a file was added previously or it is already in the optimization zone; and help tips on buttons.
3. Choosing the file data since Select tag.
4. Buttons $\texttt{Add data}$ and $\texttt{Remove}$, to add or remove data to the optimization zone.
5. Buttons $\texttt{Run}$ and $\texttt{Reset}$, to start the optimization, create the plots and return the DataFrame with the parameters.
6. Figures: wide mode and saving options.
7. T

File: OCP_p27_1.txt
Time (s)	WE(1).Potential (V)	Corrected time (s)	Index	dWE(1).Potential/dt (V/s)	Cutoffs	OCP value (V)
1.27375	0.0303711	0	1	0	dWE(1).Potential/dt < 1E-06 V/s	0.0295971
1.37375	0.030368	0.1	2	-3.05287e-05	dWE(1).Potential/dt < 1E-06 V/s
1.47375	0.030365	0.2	3	-3.05008e-05	dWE(1).Potential/dt < 1E-06 V/s
1.57375	0.030368	0.3	4	8.13293e-05
1.67375	0.030365	0.4	5	-0.000101663	dWE(1).Potential/dt < 1E-06 V/s
1.77375	0.0303619	0.5	6	-1.01825e-05	dWE(1).Potential/dt < 1E-06 V/s
1.87375	0.0303589	0.6	7	-3.05846e-05	dWE(1).Potential/dt < 1E-06 V/s
1.97375	0.0303558	0.7	8	-3.04977e-05	dWE(1).Potential/dt < 1E-06 V/s
2.07375	0.0303589	0.8	9	8.13976e-05
2.17375	0.0303589	0.9	10	-4.58148e-05	dWE(1).Potential/dt < 1E-06 V/s
2.27375	0.0303528	1	11	-0.000101756	dWE(1).Potential/dt < 1E-06 V/s
2.37375	0.0303558	1.1	12	0.000127237
2.47375	0.0303558	1.2	13	-5.59476e-05	dWE(1).Potential/dt < 1E-06 V/s
2.57375	0.0303528	1.3	14	-4.57838e-05	dWE(1).Potential/dt < 1E-06 V/s
2.67375	0.0303497	1.4	15	-2.02966e-05	dWE(1).Potential/dt < 1E-06 V/s
2.77375	0.0303467	1.5	16	-3.05287e-05	dWE(1).Potential/dt < 1E-06 V/s
2.87375	0.0303497	1.6	17	8.13231e-05
2.97375	0.0303467	1.7	18	-0.000101676	dWE(1).Potential/dt < 1E-06 V/s
3.07375	0.0303436	1.8	19	-1.02445e-05	dWE(1).Potential/dt < 1E-06 V/s
3.17375	0.0303436	1.9	20	2.54313e-05
3.27375	0.0303406	2	21	-6.61239e-05	dWE(1).Potential/dt < 1E-06 V/s
3.37375	0.0303375	2.1	22	-2.03339e-05	dWE(1).Potential/dt < 1E-06 V/s
3.47375	0.0303406	2.2	23	8.1441e-05
3.57375	0.0303375	2.3	24	-0.000101756	dWE(1).Potential/dt < 1E-06 V/s
3.67375	0.0303375	2.4	25	4.58086e-05
3.77375	0.0303375	2.5	26	-1.01638e-05	dWE(1).Potential/dt < 1E-06 V/s
3.87375	0.0303375	2.6	27	1.24176e-08	dWE(1).Potential/dt < 1E-06 V/s
3.97375	0.0303345	2.7	28	-5.59166e-05	dWE(1).Potential/dt < 1E-06 V/s
4.07375	0.0303375	2.8	29	9.15055e-05
4.17375	0.0303284	2.9	30	-0.000213571	dWE(1).Potential/dt < 1E-06 V/s
4.27375	0.0303284	3	31	0.000116924
4.37375	0.0303253	3.1	32	-8.6464e-05	dWE(1).Potential/dt < 1E-06 V/s
4.47375	0.0303284	3.2	33	9.15738e-05
4.57375	0.0303223	3.3	34	-0.000157723	dWE(1).Potential/dt < 1E-06 V/s
4.67375	0.0303253	3.4	35	0.000137407
4.77375	0.0303253	3.5	36	-5.59476e-05	dWE(1).Potential/dt < 1E-06 V/s
4.87375	0.0303253	3.6	37	1.01949e-05
4.97375	0.0303192	3.7	38	-0.000111889	dWE(1).Potential/dt < 1E-06 V/s
5.07375	0.0303162	3.8	39	1.52675e-05
5.17375	0.0303162	3.9	40	1.52178e-05
5.27375	0.0303131	4	41	-6.61611e-05	dWE(1).Potential/dt < 1E-06 V/s
5.37375	0.0303131	4.1	42	3.56013e-05
5.47375	0.0303101	4.2	43	-6.61239e-05	dWE(1).Potential/dt < 1E-06 V/s
5.57375	0.0303101	4.3	44	3.56448e-05
5.67375	0.0303101	4.4	45	-1.01514e-05	dWE(1).Potential/dt < 1E-06 V/s
5.77375	0.030304	4.5	46	-0.000111889	dWE(1).Potential/dt < 1E-06 V/s
5.87375	0.030307	4.6	47	0.000127126
5.97375	0.0302979	4.7	48	-0.000223747	dWE(1).Potential/dt < 1E-06 V/s
6.07375	0.0303009	4.8	49	0.000172903
6.17375	0.0303009	4.9	50	-6.61487e-05	dWE(1).Potential/dt < 1E-06 V/s
6.27375	0.0302979	5	51	-4.58148e-05	dWE(1).Potential/dt < 1E-06 V/s
6.37375	0.0302979	5.1	52	3.56013e-05
6.47375	0.0302948	5.2	53	-6.61239e-05	dWE(1).Potential/dt < 1E-06 V/s
6.57375	0.0302948	5.3	54	3.56448e-05
6.67375	0.0302948	5.4	55	-1.01514e-05	dWE(1).Potential/dt < 1E-06 V/s
6.77375	0.0302948	5.5	56	1.86264e-08	dWE(1).Potential/dt < 1E-06 V/s
6.87375	0.0302887	5.6	57	-0.000111889	dWE(1).Potential/dt < 1E-06 V/s
6.97375	0.0302856	5.7	58	1.52675e-05
7.07375	0.0302887	5.8	59	7.11468e-05
7.17375	0.0302887	5.9	60	-4.57466e-05	dWE(1).Potential/dt < 1E-06 V/s
7.27375	0.0302856	6	61	-4.5759e-05	dWE(1).Potential/dt < 1E-06 V/s
7.37375	0.0302826	6.1	62	-2.04146e-05	dWE(1).Potential/dt < 1E-06 V/s
7.47375	0.0302795	6.2	63	-3.04977e-05	dWE(1).Potential/dt < 1E-06 V/s
7.57375	0.0302795	6.3	64	2.54686e-05
7.67375	0.0302765	6.4	65	-6.61301e-05	dWE(1).Potential/dt < 1E-06 V/s
7.77375	0.0302765	6.5	66	3.56324e-05
7.87375	0.0302734	6.6	67	-6.60928e-05	dWE(1).Potential/dt < 1E-06 V/s
7.97375	0.0302765	6.7	68	9.15055e-05
8.07375	0.0302734	6.8	69	-0.000101663	dWE(1).Potential/dt < 1E-06 V/s
8.17375	0.0302704	6.9	70	-1.01825e-05	dWE(1).Potential/dt < 1E-06 V/s
8.27375	0.0302673	7	71	-3.05846e-05	dWE(1).Potential/dt < 1E-06 V/s
8.37375	0.0302673	7.1	72	2.54313e-05
8.47375	0.0302643	7.2	73	-6.61239e-05	dWE(1).Potential/dt < 1E-06 V/s
8.57375	0.0302643	7.3	74	3.56448e-05
8.67375	0.0302612	7.4	75	-6.61301e-05	dWE(1).Potential/dt < 1E-06 V/s
8.77375	0.0302612	7.5	76	3.56324e-05
8.87375	0.0302551	7.6	77	-0.000122022	dWE(1).Potential/dt < 1E-06 V/s
8.97375	0.0302551	7.7	78	7.11406e-05
9.07375	0.0302521	7.8	79	-7.63312e-05	dWE(1).Potential/dt < 1E-06 V/s
9.17375	0.0302551	7.9	80	9.158e-05
9.27375	0.0302521	8	81	-0.000101787	dWE(1).Potential/dt < 1E-06 V/s
9.37375	0.0302551	8.1	82	0.000101756
9.47375	0.0302551	8.2	83	-4.58086e-05	dWE(1).Potential/dt < 1E-06 V/s
9.57375	0.0302551	8.3	84	1.01638e-05
9.67375	0.030249	8.4	85	-0.00011192	dWE(1).Potential/dt < 1E-06 V/s
9.77375	0.030246	8.5	86	1.52861e-05
9.87375	0.030246	8.6	87	1.52861e-05
9.97375	0.0302429	8.7	88	-6.60928e-05	dWE(1).Potential/dt < 1E-06 V/s
10.0737	0.0302429	8.8	89	3.55765e-05
10.1737	0.0302399	8.9	90	-6.60991e-05	dWE(1).Potential/dt < 1E-06 V/s
10.2737	0.0302429	9	91	9.14931e-05
10.3737	0.0302399	9.1	92	-0.000101676	dWE(1).Potential/dt < 1E-06 V/s
10.4737	0.0302429	9.2	93	0.000101663
10.5737	0.0302368	9.3	94	-0.000157654	dWE(1).Potential/dt < 1E-06 V/s
10.6737	0.0302368	9.4	95	8.13479e-05
10.7737	0.0302338	9.5	96	-7.62939e-05	dWE(1).Potential/dt < 1E-06 V/s
10.8737	0.0302338	9.6	97	3.56448e-05
10.9737	0.0302307	9.7	98	-6.61301e-05	dWE(1).Potential/dt < 1E-06 V/s
11.0737	0.0302307	9.8	99	3.56324e-05
11.1737	0.0302338	9.9	100	4.58148e-05
11.2737	0.0302277	10	101	-0.000147509	dWE(1).Potential/dt < 1E-06 V/s
11.3737	0.0302277	10.1	102	8.13727e-05
11.4737	0.0302246	10.2	103	-7.62753e-05	dWE(1).Potential/dt < 1E-06 V/s
11.5737	0.0302246	10.3	104	3.55641e-05
11.6737	0.0302185	10.4	105	-0.00012209	dWE(1).Potential/dt < 1E-06 V/s
11.7737	0.0302216	10.5	106	0.000127194
11.8737	0.0302185	10.6	107	-0.00011192	dWE(1).Potential/dt < 1E-06 V/s
11.9737	0.0302185	10.7	108	4.58148e-05
12.0737	0.0302185	10.8	109	-1.01514e-05	dWE(1).Potential/dt < 1E-06 V/s
12.1737	0.0302124	10.9	110	-0.000111889	dWE(1).Potential/dt < 1E-06 V/s
12.2737	0.0302155	11	111	0.000127126
12.3737	0.0302124	11.1	112	-0.000111839	dWE(1).Potential/dt < 1E-06 V/s
12.4737	0.0302094	11.2	113	-1.01825e-05	dWE(1).Potential/dt < 1E-06 V/s
12.5737	0.0302094	11.3	114	2.53941e-05
12.6737	0.0302063	11.4	115	-6.61611e-05	dWE(1).Potential/dt < 1E-06 V/s
12.7737	0.0302094	11.5	116	9.158e-05
12.8737	0.0302032	11.6	117	-0.000157716	dWE(1).Potential/dt < 1E-06 V/s
12.9737	0.0302063	11.7	118	0.00013737
13.0737	0.0302032	11.8	119	-0.00011192	dWE(1).Potential/dt < 1E-06 V/s
13.1737	0.0302063	11.9	120	0.000101744
13.2737	0.0301941	12	121	-0.000269581	dWE(1).Potential/dt < 1E-06 V/s
13.3737	0.0301971	12.1	122	0.000208486
13.4737	0.0302002	12.2	123	-2.03339e-05	dWE(1).Potential/dt < 1E-06 V/s
13.5737	0.0301971	12.3	124	-8.13231e-05	dWE(1).Potential/dt < 1E-06 V/s
13.6737	0.0301941	12.4	125	-1.01825e-05	dWE(1).Potential/dt < 1E-06 V/s
13.7737	0.0301941	12.5	126	2.53941e-05
13.8737	0.030191	12.6	127	-6.61611e-05	dWE(1).Potential/dt < 1E-06 V/s
13.9737	0.030191	12.7	128	3.56013e-05
[...]
55.1737	0.0296478	53.9	540	1.017e-05
55.2737	0.0296417	54	541	-0.000111908	dWE(1).Potential/dt < 1E-06 V/s
55.3737	0.0296417	54.1	542	7.11779e-05
55.4737	0.0296448	54.2	543	3.56138e-05
55.5737	0.0296356	54.3	544	-0.000203519	dWE(1).Potential/dt < 1E-06 V/s
55.6737	0.0296356	54.4	545	0.000117055
55.7737	0.0296356	54.5	546	-3.05101e-05	dWE(1).Potential/dt < 1E-06 V/s
55.8737	0.0296295	54.6	547	-0.000111846	dWE(1).Potential/dt < 1E-06 V/s
55.9737	0.0296326	54.7	548	0.00012707
56.0737	0.0296295	54.8	549	-0.000111846	dWE(1).Potential/dt < 1E-06 V/s
56.1737	0.0296265	54.9	550	-1.02445e-05	dWE(1).Potential/dt < 1E-06 V/s
56.2737	0.0296295	55	551	8.141e-05
56.3737	0.0296265	55.1	552	-0.000101787	dWE(1).Potential/dt < 1E-06 V/s
56.4737	0.0296234	55.2	553	-1.01514e-05	dWE(1).Potential/dt < 1E-06 V/s
56.5737	0.0296234	55.3	554	2.54686e-05
56.6737	0.0296234	55.4	555	-1.01514e-05	dWE(1).Potential/dt < 1E-06 V/s
56.7737	0.0296204	55.5	556	-5.59601e-05	dWE(1).Potential/dt < 1E-06 V/s
56.8737	0.0296204	55.6	557	3.56324e-05
56.9737	0.0296204	55.7	558	-1.01638e-05	dWE(1).Potential/dt < 1E-06 V/s
57.0737	0.0296204	55.8	559	1.24176e-08	dWE(1).Potential/dt < 1E-06 V/s
57.1737	0.0296173	55.9	560	-5.59166e-05	dWE(1).Potential/dt < 1E-06 V/s
57.2737	0.0296143	56	561	-2.03525e-05	dWE(1).Potential/dt < 1E-06 V/s
57.3737	0.0296143	56.1	562	2.53941e-05
57.4737	0.0296112	56.2	563	-6.61611e-05	dWE(1).Potential/dt < 1E-06 V/s
57.5737	0.0296112	56.3	564	3.56013e-05
57.6737	0.0296112	56.4	565	-1.01949e-05	dWE(1).Potential/dt < 1E-06 V/s
57.7737	0.0296112	56.5	566	-1.86264e-08	dWE(1).Potential/dt < 1E-06 V/s
57.8737	0.0296051	56.6	567	-0.000111926	dWE(1).Potential/dt < 1E-06 V/s
57.9737	0.0296051	56.7	568	7.12586e-05
58.0737	0.0296051	56.8	569	-2.03339e-05	dWE(1).Potential/dt < 1E-06 V/s
58.1737	0.0296021	56.9	570	-5.59166e-05	dWE(1).Potential/dt < 1E-06 V/s
58.2737	0.029599	57	571	-2.03525e-05	dWE(1).Potential/dt < 1E-06 V/s
58.3737	0.029599	57.1	572	2.53941e-05
58.4737	0.0295959	57.2	573	-6.61611e-05	dWE(1).Potential/dt < 1E-06 V/s
58.5737	0.0295959	57.3	574	3.56013e-05
58.6737	0.0295959	57.4	575	-1.01949e-05	dWE(1).Potential/dt < 1E-06 V/s
58.7737	0.0295929	57.5	576	-5.59476e-05	dWE(1).Potential/dt < 1E-06 V/s
58.8737	0.0295929	57.6	577	3.56448e-05
58.9737	0.029599	57.7	578	0.000101756
59.0737	0.0295959	57.8	579	-0.000127237	dWE(1).Potential/dt < 1E-06 V/s
59.1737	0.0295898	57.9	580	-5.59601e-05	dWE(1).Potential/dt < 1E-06 V/s
59.2737	0.0295898	58	581	6.10823e-05
59.3737	0.0295868	58.1	582	-7.62629e-05	dWE(1).Potential/dt < 1E-06 V/s
59.4737	0.0295837	58.2	583	-2.03525e-05	dWE(1).Potential/dt < 1E-06 V/s
59.5737	0.0295807	58.3	584	-3.05846e-05	dWE(1).Potential/dt < 1E-06 V/s
59.6737	0.0295837	58.4	585	8.141e-05
59.7737	0.0295776	58.5	586	-0.000157716	dWE(1).Potential/dt < 1E-06 V/s
59.8737	0.0295807	58.6	587	0.00013737
59.9737	0.0295807	58.7	588	-5.59911e-05	dWE(1).Potential/dt < 1E-06 V/s
60.0737	0.0295776	58.8	589	-4.57776e-05	dWE(1).Potential/dt < 1E-06 V/s
60.1737	0.0295776	58.9	590	3.56448e-05
60.2737	0.0295746	59	591	-6.61301e-05	dWE(1).Potential/dt < 1E-06 V/s
60.3737	0.0295715	59.1	592	-2.02966e-05	dWE(1).Potential/dt < 1E-06 V/s
60.4737	0.0295746	59.2	593	8.13293e-05
60.5737	0.0295685	59.3	594	-0.000157592	dWE(1).Potential/dt < 1E-06 V/s
60.6737	0.0295715	59.4	595	0.00013724
60.7737	0.0295685	59.5	596	-0.000111846	dWE(1).Potential/dt < 1E-06 V/s
60.8737	0.0295715	59.6	597	0.000101663
60.9737	0.0295685	59.7	598	-0.000101676	dWE(1).Potential/dt < 1E-06 V/s
61.0737	0.0295654	59.8	599	-1.02445e-05	dWE(1).Potential/dt < 1E-06 V/s
61.1737	0.0295685	59.9	600	8.141e-05

File: OCP_p28_1.txt
Time (s)	WE(1).Potential (V)	Corrected time (s)	Index	dWE(1).Potential/dt (V/s)	OCP value (V)
1.38175	-0.0205536	0	1	0	-0.020597
1.68175	-0.0205597	0.3	4	7.12275e-05
1.98175	-0.0205566	0.6	7	0.00023912
2.28175	-0.0205597	0.9	10	0.000127169
2.58175	-0.0205566	1.2	13	0.000284867
2.88175	-0.0205627	1.5	16	0.00025435
3.18175	-0.0205719	1.8	19	6.10389e-05
3.48175	-0.0205597	2.1	22	0.000223778
3.78175	-0.0205627	2.4	25	0.000127163
4.08175	-0.0205719	2.7	28	6.10389e-05
4.38175	-0.020575	3	31	3.56262e-05
4.68175	-0.0205719	3.3	34	0.00023912
4.98175	-0.020575	3.6	37	0.000218712
5.28175	-0.0205719	3.9	40	0.000330613
5.58175	-0.0205811	4.2	43	-0.000122103
5.88175	-0.020578	4.5	46	0.000147484
6.18175	-0.020578	4.8	49	0.000595096
6.48175	-0.020578	5.1	52	0.000366215
6.78175	-0.0205963	5.4	55	-0.000289933
7.08175	-0.0205872	5.7	58	-0.000106779
7.38175	-0.0205872	6	61	-0.000457751
7.68175	-0.0205841	6.3	64	0.000376391
7.98175	-0.0205872	6.6	67	0.00040181
8.28175	-0.0205963	6.9	70	-0.000167874
8.58175	-0.0205902	7.2	73	6.60991e-05
8.88175	-0.0206055	7.5	76	-0.000371281
9.18175	-0.0205902	7.8	79	0.000279751
9.48175	-0.0205994	8.1	82	-0.000808704
9.78175	-0.0206116	8.4	85	-0.000590036
10.0817	-0.0205872	8.7	88	0.000172965
10.3817	-0.0205963	9	91	-0.000122127
10.6817	-0.0206024	9.3	94	-0.000203413
10.9817	-0.0205994	9.6	97	0.000284823
11.2817	-0.0206024	9.9	100	-0.000239039
11.5817	-0.0206085	10.2	103	7.11903e-05
11.8817	-0.0206055	10.5	106	-0.000356045
12.1817	-0.0206024	10.8	109	5.59849e-05
12.4817	-0.0206055	11.1	112	-0.000193305
12.7817	-0.0206055	11.4	115	4.58024e-05
13.0817	-0.0206177	11.7	118	-0.000544209
13.3817	-0.0206146	12	121	-0.000493365
13.6817	-0.0206116	12.3	124	-3.56386e-05
13.9817	-0.0206238	12.6	127	-0.000406913
14.2817	-0.0205994	12.9	130	0.000584889
14.5817	-0.0206177	13.2	133	7.63436e-05
14.8817	-0.0206055	13.5	136	-9.66216e-05
15.1817	-0.0206177	13.8	139	5.12227e-06
15.4817	-0.0206146	14.1	142	-0.00017294
15.7817	-0.0206177	14.4	145	-0.0001017
16.0817	-0.0206329	14.7	148	-0.000508614
16.3817	-0.0206177	15	151	5.07881e-06
16.6817	-0.0206238	15.3	154	2.53941e-05
16.9817	-0.0206177	15.6	157	-0.000208548
17.2817	-0.0206268	15.9	160	-0.000213645
17.5817	-0.0206116	16.2	163	0.000462818
17.8817	-0.0206268	16.5	166	-0.000142418
18.1817	-0.0206268	16.8	169	4.5759e-05
18.4817	-0.0206238	17.1	172	-3.55765e-05
18.7817	-0.0206146	17.4	175	0.000259398
19.0817	-0.0206268	17.7	178	9.6634e-05
19.3817	-0.020636	18	181	-0.000167849
19.6817	-0.0206451	18.3	184	-0.000396712
19.9817	-0.0206299	18.6	187	5.09123e-06
20.2817	-0.020639	18.9	190	-0.000488236
20.5817	-0.0206238	19.2	193	5.10986e-06
20.8817	-0.0206268	19.5	196	-0.000330613
21.1817	-0.0206299	19.8	199	8.13976e-05
21.4817	-0.0206329	20.1	202	-0.0001017
21.7817	-0.0206268	20.4	205	0.000523863
22.0817	-0.0206329	20.7	208	-0.000432295
22.3817	-0.0206421	21	211	0.000106804
22.6817	-0.020639	21.3	214	-0.000218712
22.9817	-0.020636	21.6	217	1.01762e-05
23.2817	-0.0206268	21.9	220	3.05039e-05
23.5817	-0.020636	22.2	223	0.000244143
23.8817	-0.0206451	22.5	226	-0.000259398
24.1817	-0.0206329	22.8	229	-5.08378e-05
24.4817	-0.0206238	23.1	232	0.000305138
24.7817	-0.0206329	23.4	235	-0.000122047
25.0817	-0.020639	23.7	238	7.11903e-05
25.3817	-0.0206451	24	241	-2.03215e-05
25.6817	-0.0206482	24.3	244	0.000172953
25.9817	-0.020639	24.6	247	-0.000106829
26.2817	-0.0206421	24.9	250	-0.000147478
26.5817	-0.020636	25.2	253	-0.000116987
26.8817	-0.0206329	25.5	256	5.59849e-05
27.1817	-0.020639	25.8	259	-0.000157691
27.4817	-0.0206482	26.1	262	-0.000488267
27.7817	-0.0206451	26.4	265	-0.000127194
28.0817	-0.0206421	26.7	268	0.000284811
28.3817	-0.020639	27	271	-0.000218712
28.6817	-0.0206329	27.3	274	0.00024924
28.9817	-0.020639	27.6	277	-0.000157691
29.2817	-0.0206421	27.9	280	-0.000239046
29.5817	-0.0206451	28.2	283	-0.000147484
29.8817	-0.0206421	28.5	286	-0.000127132
30.1817	-0.0206421	28.8	289	-0.000137302
30.4817	-0.0206451	29.1	292	8.13976e-05
30.7817	-0.0206451	29.4	295	0.000137314
31.0817	-0.020636	29.7	298	0.000488286
31.3817	-0.0206421	30	301	2.54375e-05
31.6817	-0.0206451	30.3	304	0.00017294
31.9817	-0.020639	30.6	307	-2.54561e-05
32.2817	-0.0206512	30.9	310	5.06018e-06
32.5817	-0.0206421	31.2	313	0.000167843
32.8817	-0.0206421	31.5	316	-1.24176e-08
33.1817	-0.020636	31.8	319	-0.000117036
33.4817	-0.0206329	32.1	322	1.01638e-05
33.7817	-0.020639	32.4	325	7.12399e-05
34.0817	-0.0206329	32.7	328	0.000111901
34.3817	-0.0206329	33	331	0.000320437
34.6817	-0.020636	33.3	334	0.000218712
34.9817	-0.020639	33.6	337	-0.000513736
35.2817	-0.020636	33.9	340	-3.55703e-05
35.5817	-0.020636	34.2	343	-4.579e-05
35.8817	-0.020636	34.5	346	6.20882e-09
36.1817	-0.0206299	34.8	349	2.03463e-05
36.4817	-0.0206451	35.1	352	-0.000600194
36.7817	-0.0206299	35.4	355	0.000233998
37.0817	-0.0206268	35.7	358	0.000376329
37.3817	-0.0206207	36	361	0.000157691
37.6817	-0.0206299	36.3	364	-0.000305145
37.9817	-0.0206177	36.6	367	0.000178044
38.2817	-0.0206238	36.9	370	-6.61239e-05
38.5817	-0.0206329	37.2	373	-0.000534064
38.8817	-0.0206329	37.5	376	0.000137302
39.1817	-0.0206299	37.8	379	-0.000310279
39.4817	-0.0206299	38.1	382	-0.000228907
39.7817	-0.0206299	38.4	385	9.15428e-05
40.0817	-0.0206238	38.7	388	0.000111933
40.3817	-0.0206299	39	391	-2.03215e-05
40.6817	-0.0206268	39.3	394	-3.56386e-05
40.9817	-0.0206207	39.6	397	0.000203438
41.2817	-0.0206207	39.9	400	9.14993e-05
41.5817	-0.0206177	40.2	403	0.000147528
41.8817	-0.0206299	40.5	406	-8.6464e-05
42.1817	-0.0206329	40.8	409	-0.0001017
42.4817	-0.0206238	41.1	412	0.000350935
42.7817	-0.0206207	41.4	415	5.59476e-05
43.0817	-0.0206177	41.7	418	0.00023907
43.3817	-0.0206238	42	421	7.12151e-05
43.6817	-0.0206268	42.3	424	-5.59352e-05
43.9817	-0.0206299	42.6	427	-0.000101738
44.2817	-0.0206238	42.9	430	0.000111883
44.5817	-0.0206299	43.2	433	-0.000340796
44.8817	-0.0206146	43.5	436	0.000462855
45.1817	-0.0206268	43.8	439	-0.00036113
45.4817	-0.0206146	44.1	442	0.00013226
45.7817	-0.0206177	44.4	445	8.14348e-05
46.0817	-0.0206085	44.7	448	0.000122078
46.3817	-0.0206207	45	451	-0.000315364
46.6817	-0.0206177	45.3	454	1.01887e-05
46.9817	-0.0206146	45.6	457	-0.000127144
47.2817	-0.0206177	45.9	460	-1.01576e-05
47.5817	-0.0206238	46.2	463	-0.000111895
47.8817	-0.0206177	46.5	466	-0.000162727
48.1817	-0.0206116	46.8	469	-0.000208554
48.4817	-0.0206177	47.1	472	2.54686e-05
48.7817	-0.0206146	47.4	475	1.017e-05
49.0817	-0.0206238	47.7	478	-0.000259404
49.3817	-0.0206146	48	481	-6.10265e-05
49.6817	-0.0206207	48.3	484	-0.000157679
49.9817	-0.0206024	48.6	487	0.00019839
50.2817	-0.0206116	48.9	490	0.000335686
50.5817	-0.0206055	49.2	493	-0.000162733
50.8817	-0.0206146	49.5	496	-0.000350966
51.1817	-0.0206116	49.8	499	0.0001017
51.4817	-0.0206146	50.1	502	-0.000193231
51.7817	-0.0206024	50.4	505	-5.08129e-05
52.0817	-0.0206085	50.7	508	-6.61239e-05
52.3817	-0.0206055	51	511	-0.000172959
52.6817	-0.0205963	51.3	514	-1.52675e-05
52.9817	-0.0206085	51.6	517	-0.000269574
53.2817	-0.0206085	51.9	520	-6.20882e-09
53.5817	-0.0206024	52.2	523	2.04084e-05
53.8817	-0.0206024	52.5	526	0.000137376
54.1817	-0.0205933	52.8	529	0.000259442
54.4817	-0.0206085	53.1	532	4.07236e-05
54.7817	-0.0205994	53.4	535	0.000305145
55.0817	-0.0206024	53.7	538	0.000218774
55.3817	-0.0205994	54	541	0.000101713
55.6817	-0.0206024	54.3	544	-5.59042e-05
55.9817	-0.0206055	54.6	547	-0.00019328
56.2817	-0.0206055	54.9	550	0.000228838
56.5817	-0.0205963	55.2	553	-1.52923e-05
56.8817	-0.0205994	55.5	556	-0.00019328
57.1817	-0.0205902	55.8	559	0.00044254
57.4817	-0.0205994	56.1	562	0.000244187
57.7817	-0.0205933	56.4	565	2.03401e-05
58.0817	-0.0205994	56.7	568	-0.00015766
58.3817	-0.0205963	57	571	5.5929e-05
58.6817	-0.0206055	57.3	574	-0.000167849
58.9817	-0.0205902	57.6	577	0.000371293
59.2817	-0.0205963	57.9	580	2.54375e-05
59.5817	-0.0205902	58.2	583	-2.54686e-05
59.8817	-0.0205933	58.5	586	-1.01762e-05
60.1817	-0.0205994	58.8	589	-6.61177e-05
60.4817	-0.0205963	59.1	592	0.0001017
60.7817	-0.0205994	59.4	595	-0.000101688
61.0817	-0.0205963	59.7	598	1.01576e-05
61.2817	-0.0205902	59.9	600	-7.11903e-05