Folder: Streamlit_cement_impedance/data/20200212 (part 3)

File: OCP_p31_1.txt
Time (s)	WE(1).Potential (V)	Corrected time (s)	Index	dWE(1).Potential/dt (V/s)	Cutoffs	OCP value (V)
1.54475	0.0257416	0	1	0	dWE(1).Potential/dt < 1E-06 V/s	0.0250542
1.64475	0.0257355	0.1	2	-6.10389e-05	dWE(1).Potential/dt < 1E-06 V/s
1.74475	0.0257324	0.2	3	-1.52364e-05	dWE(1).Potential/dt < 1E-06 V/s
1.84475	0.0257355	0.3	4	7.1153e-05
1.94475	0.0257385	0.4	5	1.02383e-05
2.04475	0.0257294	0.5	6	-0.000193324	dWE(1).Potential/dt < 1E-06 V/s
2.14475	0.0257324	0.6	7	0.000172959
2.24475	0.0257324	0.7	8	-6.61487e-05	dWE(1).Potential/dt < 1E-06 V/s
2.34475	0.0257385	0.8	9	0.000122078
2.44475	0.0257172	0.9	10	-0.000462836	dWE(1).Potential/dt < 1E-06 V/s
2.54475	0.0257172	1	11	0.000269556
2.64475	0.0257141	1.1	12	-0.000127194	dWE(1).Potential/dt < 1E-06 V/s
2.74475	0.0257111	1.2	13	-2.03215e-05	dWE(1).Potential/dt < 1E-06 V/s
2.84475	0.0257202	1.3	14	0.000193262
2.94475	0.025708	1.4	15	-0.000340727	dWE(1).Potential/dt < 1E-06 V/s
3.04475	0.0257141	1.5	16	0.000284786
3.14475	0.0257141	1.6	17	-0.000111901	dWE(1).Potential/dt < 1E-06 V/s
3.24475	0.0257141	1.7	18	2.03277e-05
3.34475	0.0257111	1.8	19	-5.59414e-05	dWE(1).Potential/dt < 1E-06 V/s
3.44475	0.0257111	1.9	20	3.56013e-05
3.54475	0.0256958	2	21	-0.000289914	dWE(1).Potential/dt < 1E-06 V/s
3.64475	0.0256989	2.1	22	0.000233948
3.74475	0.025705	2.2	23	2.54313e-05
3.84475	0.0256866	2.3	24	-0.000396694	dWE(1).Potential/dt < 1E-06 V/s
3.94475	0.0256989	2.4	25	0.000457701
4.04475	0.0256927	2.5	26	-0.000315302	dWE(1).Potential/dt < 1E-06 V/s
4.14475	0.0256958	2.6	27	0.00016783
4.24475	0.0256897	2.7	28	-0.000167849	dWE(1).Potential/dt < 1E-06 V/s
4.34475	0.0256866	2.8	29	2.54686e-05
4.44475	0.0256805	2.9	30	-9.66837e-05	dWE(1).Potential/dt < 1E-06 V/s
4.54475	0.0256805	3	31	6.10513e-05
4.64475	0.0256836	3.1	32	3.55827e-05
4.74475	0.0256744	3.2	33	-0.00020345	dWE(1).Potential/dt < 1E-06 V/s
4.84475	0.0256744	3.3	34	0.000116999
4.94475	0.0256714	3.4	35	-8.64391e-05	dWE(1).Potential/dt < 1E-06 V/s
5.04475	0.0256744	3.5	36	9.14993e-05
5.14475	0.0256653	3.6	37	-0.000213577	dWE(1).Potential/dt < 1E-06 V/s
5.24475	0.0256653	3.7	38	0.000116968
5.34475	0.0256683	3.8	39	2.54127e-05
5.44475	0.0256622	3.9	40	-0.000147472	dWE(1).Potential/dt < 1E-06 V/s
5.54475	0.0256683	4	41	0.000193243
5.64475	0.0256683	4.1	42	-9.15552e-05	dWE(1).Potential/dt < 1E-06 V/s
5.74475	0.0256622	4.2	43	-9.15304e-05	dWE(1).Potential/dt < 1E-06 V/s
5.84475	0.0256653	4.3	44	0.000127144
5.94475	0.02565	4.4	45	-0.000335686	dWE(1).Potential/dt < 1E-06 V/s
6.04475	0.0256622	4.5	46	0.000412005
6.14475	0.02565	4.6	47	-0.000417083	dWE(1).Potential/dt < 1E-06 V/s
6.24475	0.0256439	4.7	48	7.12027e-05
6.34475	0.025647	4.8	49	8.65136e-05
6.44475	0.0256561	4.9	50	0.000111883
6.54475	0.025647	5	51	-0.000264489	dWE(1).Potential/dt < 1E-06 V/s
6.64475	0.02565	5.1	52	0.00019328
6.74475	0.025647	5.2	53	-0.000122047	dWE(1).Potential/dt < 1E-06 V/s
6.84475	0.025647	5.3	54	4.57838e-05
6.94475	0.0256409	5.4	55	-0.000122065	dWE(1).Potential/dt < 1E-06 V/s
7.04475	0.0256348	5.5	56	-4.07174e-05	dWE(1).Potential/dt < 1E-06 V/s
7.14475	0.0256348	5.6	57	5.0875e-05
7.24475	0.0256348	5.7	58	-2.03463e-05	dWE(1).Potential/dt < 1E-06 V/s
7.34475	0.0256317	5.8	59	-5.5929e-05	dWE(1).Potential/dt < 1E-06 V/s
7.44475	0.0256348	5.9	60	9.15428e-05
7.54475	0.0256226	6	61	-0.000269587	dWE(1).Potential/dt < 1E-06 V/s
7.64475	0.0256348	6.1	62	0.000376391
7.74475	0.0256317	6.2	63	-0.000239039	dWE(1).Potential/dt < 1E-06 V/s
7.84475	0.0256287	6.3	64	2.03277e-05
7.94475	0.0256226	6.4	65	-8.64516e-05	dWE(1).Potential/dt < 1E-06 V/s
8.04475	0.0256226	6.5	66	6.10078e-05
8.14475	0.0256256	6.6	67	3.562e-05
8.24475	0.0256195	6.7	68	-0.000147534	dWE(1).Potential/dt < 1E-06 V/s
8.34475	0.0256195	6.8	69	8.13976e-05
8.44475	0.0256195	6.9	70	-2.03463e-05	dWE(1).Potential/dt < 1E-06 V/s
8.54475	0.0256134	7	71	-0.000111908	dWE(1).Potential/dt < 1E-06 V/s
8.64475	0.0256104	7.1	72	1.52985e-05
8.74475	0.0256073	7.2	73	-4.07547e-05	dWE(1).Potential/dt < 1E-06 V/s
8.84475	0.0256104	7.3	74	8.14162e-05
8.94475	0.0256073	7.4	75	-0.000101781	dWE(1).Potential/dt < 1E-06 V/s
9.04475	0.0256073	7.5	76	4.57838e-05
9.14475	0.0256165	7.6	77	0.000157698
9.24475	0.0256042	7.7	78	-0.000330619	dWE(1).Potential/dt < 1E-06 V/s
9.34475	0.0256042	7.8	79	0.00017294
9.44475	0.0256042	7.9	80	-4.06926e-05	dWE(1).Potential/dt < 1E-06 V/s
9.54475	0.0256042	8	81	0	dWE(1).Potential/dt < 1E-06 V/s
9.64475	0.0256042	8.1	82	0	dWE(1).Potential/dt < 1E-06 V/s
9.74475	0.0256012	8.2	83	-5.5929e-05	dWE(1).Potential/dt < 1E-06 V/s
9.84475	0.0256042	8.3	84	9.15428e-05
9.94475	0.025592	8.4	85	-0.000269587	dWE(1).Potential/dt < 1E-06 V/s
10.0447	0.025592	8.5	86	0.000152575
10.1447	0.0255951	8.6	87	1.52737e-05
10.2447	0.025589	8.7	88	-0.000147534	dWE(1).Potential/dt < 1E-06 V/s
10.3447	0.0255981	8.8	89	0.000249234
10.4447	0.025589	8.9	90	-0.000294975	dWE(1).Potential/dt < 1E-06 V/s
10.5447	0.0255951	9	91	0.000249222
10.6447	0.025589	9.1	92	-0.000213652	dWE(1).Potential/dt < 1E-06 V/s
10.7447	0.025589	9.2	93	9.15676e-05
10.8447	0.025592	9.3	94	3.55827e-05
10.9447	0.0255829	9.4	95	-0.00020345	dWE(1).Potential/dt < 1E-06 V/s
11.0447	0.0255859	9.5	96	0.000172978
11.1447	0.0255798	9.6	97	-0.000178032	dWE(1).Potential/dt < 1E-06 V/s
11.2447	0.0255798	9.7	98	8.13665e-05
11.3447	0.0255829	9.8	99	3.55765e-05
11.4447	0.0255859	9.9	100	2.04084e-05
11.5447	0.0255798	10	101	-0.000137345	dWE(1).Potential/dt < 1E-06 V/s
11.6447	0.0255798	10.1	102	8.13665e-05
11.7447	0.0255798	10.2	103	-2.03525e-05	dWE(1).Potential/dt < 1E-06 V/s
11.8447	0.0255768	10.3	104	-5.59849e-05	dWE(1).Potential/dt < 1E-06 V/s
11.9447	0.0255707	10.4	105	-7.62505e-05	dWE(1).Potential/dt < 1E-06 V/s
12.0447	0.0255768	10.5	106	0.000172897
12.1447	0.0255737	10.6	107	-0.000147484	dWE(1).Potential/dt < 1E-06 V/s
12.2447	0.0255768	10.7	108	0.00011187
12.3447	0.0255737	10.8	109	-0.000101713	dWE(1).Potential/dt < 1E-06 V/s
12.4447	0.0255768	10.9	110	0.0001017
12.5447	0.0255707	11	111	-0.000157642	dWE(1).Potential/dt < 1E-06 V/s
12.6447	0.0255707	11.1	112	8.13852e-05
12.7447	0.0255707	11.2	113	-2.03277e-05	dWE(1).Potential/dt < 1E-06 V/s
12.8447	0.0255676	11.3	114	-5.59663e-05	dWE(1).Potential/dt < 1E-06 V/s
12.9447	0.0255615	11.4	115	-7.62815e-05	dWE(1).Potential/dt < 1E-06 V/s
13.0447	0.0255707	11.5	116	0.000228894
13.1447	0.0255615	11.6	117	-0.000295037	dWE(1).Potential/dt < 1E-06 V/s
13.2447	0.0255585	11.7	118	8.13976e-05
13.3447	0.0255737	11.8	119	0.000284823
13.4447	0.0255615	11.9	120	-0.000412005	dWE(1).Potential/dt < 1E-06 V/s
13.5447	0.0255615	12	121	0.000193268
13.6447	0.0255585	12.1	122	-9.6634e-05	dWE(1).Potential/dt < 1E-06 V/s
13.7447	0.0255585	12.2	123	3.56013e-05
13.8447	0.0255585	12.3	124	-1.017e-05	dWE(1).Potential/dt < 1E-06 V/s
13.9447	0.0255615	12.4	125	5.5929e-05
14.0447	0.0255585	12.5	126	-9.15428e-05	dWE(1).Potential/dt < 1E-06 V/s
14.1447	0.0255524	12.6	127	-6.61363e-05	dWE(1).Potential/dt < 1E-06 V/s
14.2447	0.0255554	12.7	128	0.000117036
14.3447	0.0255493	12.8	129	-0.000167862	dWE(1).Potential/dt < 1E-06 V/s
14.4447	0.0255493	12.9	130	8.13665e-05
14.5447	0.0255493	13	131	-2.03525e-05	dWE(1).Potential/dt < 1E-06 V/s
14.6447	0.0255524	13.1	132	5.59228e-05
14.7447	0.0255463	13.2	133	-0.000147478	dWE(1).Potential/dt < 1E-06 V/s
14.8447	0.0255463	13.3	134	8.13541e-05
14.9447	0.0255493	13.4	135	3.562e-05
[...]
115.245	0.025058	113.7	1138	0.000193243
115.345	0.0250549	113.8	1139	-0.000147484	dWE(1).Potential/dt < 1E-06 V/s
115.445	0.0250641	113.9	1140	0.000223778
115.545	0.0250671	114	1141	-6.0983e-05	dWE(1).Potential/dt < 1E-06 V/s
115.645	0.025058	114.1	1142	-0.000172978	dWE(1).Potential/dt < 1E-06 V/s
115.745	0.0250549	114.2	1143	6.10513e-05
115.845	0.025061	114.3	1144	0.000116987
115.945	0.025058	114.4	1145	-0.000137376	dWE(1).Potential/dt < 1E-06 V/s
116.045	0.025058	114.5	1146	5.59538e-05
116.145	0.0250458	114.6	1147	-0.000233954	dWE(1).Potential/dt < 1E-06 V/s
116.245	0.025061	114.7	1148	0.000422137
116.345	0.0250671	114.8	1149	-0.000106804	dWE(1).Potential/dt < 1E-06 V/s
116.445	0.025061	114.9	1150	-0.000132229	dWE(1).Potential/dt < 1E-06 V/s
116.545	0.0250549	115	1151	-2.03711e-05	dWE(1).Potential/dt < 1E-06 V/s
116.645	0.0250641	115.1	1152	0.000218712
116.745	0.0250519	115.2	1153	-0.000350904	dWE(1).Potential/dt < 1E-06 V/s
116.845	0.0250549	115.3	1154	0.000228857
116.945	0.025058	115.4	1155	-2.03587e-05	dWE(1).Potential/dt < 1E-06 V/s
117.045	0.0250519	115.5	1156	-0.000137302	dWE(1).Potential/dt < 1E-06 V/s
117.145	0.0250549	115.6	1157	0.000137314
117.245	0.0250488	115.7	1158	-0.000167849	dWE(1).Potential/dt < 1E-06 V/s
117.345	0.025061	115.8	1159	0.000305213
117.445	0.0250519	115.9	1160	-0.000330632	dWE(1).Potential/dt < 1E-06 V/s
117.545	0.0250519	116	1161	0.000147528
117.645	0.0250488	116.1	1162	-8.64826e-05	dWE(1).Potential/dt < 1E-06 V/s
117.745	0.0250549	116.2	1163	0.000147534
117.845	0.025061	116.3	1164	3.05101e-05
117.945	0.025058	116.4	1165	-0.00010686	dWE(1).Potential/dt < 1E-06 V/s
118.045	0.025058	116.5	1166	5.59538e-05
118.145	0.025058	116.6	1167	-1.01887e-05	dWE(1).Potential/dt < 1E-06 V/s
118.245	0.025058	116.7	1168	-1.24176e-08	dWE(1).Potential/dt < 1E-06 V/s
118.345	0.025061	116.8	1169	5.59663e-05
118.445	0.025058	116.9	1170	-9.16049e-05	dWE(1).Potential/dt < 1E-06 V/s
118.545	0.025061	117	1171	0.000101762
118.645	0.0250488	117.1	1172	-0.000269618	dWE(1).Potential/dt < 1E-06 V/s
118.745	0.0250549	117.2	1173	0.000264533
118.845	0.0250549	117.3	1174	-0.000111914	dWE(1).Potential/dt < 1E-06 V/s
118.945	0.0250519	117.4	1175	-3.55827e-05	dWE(1).Potential/dt < 1E-06 V/s
119.045	0.025058	117.5	1176	0.000147472
119.145	0.0250549	117.6	1177	-0.000137314	dWE(1).Potential/dt < 1E-06 V/s
119.245	0.0250549	117.7	1178	5.59414e-05
119.345	0.025058	117.8	1179	4.5759e-05
119.445	0.0250519	117.9	1180	-0.000147472	dWE(1).Potential/dt < 1E-06 V/s
119.545	0.025061	118	1181	0.000249222
119.645	0.0250549	118.1	1182	-0.000239077	dWE(1).Potential/dt < 1E-06 V/s
119.745	0.025058	118.2	1183	0.000157667
119.845	0.0250488	118.3	1184	-0.000223797	dWE(1).Potential/dt < 1E-06 V/s
119.945	0.0250458	118.4	1185	6.10699e-05
120.045	0.0250488	118.5	1186	6.0983e-05
120.145	0.0250549	118.6	1187	6.61673e-05
120.245	0.0250488	118.7	1188	-0.000172959	dWE(1).Potential/dt < 1E-06 V/s
120.345	0.0250549	118.8	1189	0.000203482
120.445	0.0250519	118.9	1190	-0.000147497	dWE(1).Potential/dt < 1E-06 V/s
120.545	0.0250488	119	1191	-1.86264e-08	dWE(1).Potential/dt < 1E-06 V/s
120.645	0.0250519	119.1	1192	8.14348e-05
120.745	0.0250519	119.2	1193	-4.57838e-05	dWE(1).Potential/dt < 1E-06 V/s
120.845	0.0250488	119.3	1194	-4.579e-05	dWE(1).Potential/dt < 1E-06 V/s
120.945	0.0250488	119.4	1195	3.56262e-05
121.045	0.0250519	119.5	1196	4.58086e-05
121.145	0.0250519	119.6	1197	-3.56076e-05	dWE(1).Potential/dt < 1E-06 V/s
121.245	0.0250549	119.7	1198	6.61177e-05
121.345	0.0250397	119.8	1199	-0.000315346	dWE(1).Potential/dt < 1E-06 V/s
121.445	0.0250458	119.9	1200	0.000300097

File: OCP_p32_1.txt
Time (s)	WE(1).Potential (V)	Corrected time (s)	Index	dWE(1).Potential/dt (V/s)	Cutoffs	OCP value (V)
1.56774	0.0595703	0	1	0	dWE(1).Potential/dt < 1E-06 V/s	0.0595651
1.66774	0.0595703	0.1	2	0	dWE(1).Potential/dt < 1E-06 V/s
1.76774	0.0595398	0.2	3	-0.000457764	dWE(1).Potential/dt < 1E-06 V/s
1.86774	0.0595703	0.3	4	0.000915527
1.96774	0.0595703	0.4	5	-0.000457764	dWE(1).Potential/dt < 1E-06 V/s
2.06774	0.0595703	0.5	6	0.000101725
2.16774	0.0595703	0.6	7	0	dWE(1).Potential/dt < 1E-06 V/s
2.26774	0.0595703	0.7	8	0	dWE(1).Potential/dt < 1E-06 V/s
2.36774	0.0595398	0.8	9	-0.000559489	dWE(1).Potential/dt < 1E-06 V/s
2.46774	0.0595703	0.9	10	0.000915527
2.56774	0.0595398	1	11	-0.00101725	dWE(1).Potential/dt < 1E-06 V/s
2.66774	0.0595398	1.1	12	0.000457764
2.76774	0.0595703	1.2	13	0.000457764
2.86774	0.0595703	1.3	14	-0.000356038	dWE(1).Potential/dt < 1E-06 V/s
2.96774	0.0595703	1.4	15	0.000101725
3.06774	0.0595703	1.5	16	0	dWE(1).Potential/dt < 1E-06 V/s
3.16774	0.0595703	1.6	17	0	dWE(1).Potential/dt < 1E-06 V/s
3.26774	0.0595398	1.7	18	-0.000559489	dWE(1).Potential/dt < 1E-06 V/s
3.36774	0.0595703	1.8	19	0.000915527
3.46774	0.0595703	1.9	20	-0.000457764	dWE(1).Potential/dt < 1E-06 V/s
3.56774	0.0595703	2	21	0.000101725
3.66774	0.0595703	2.1	22	0	dWE(1).Potential/dt < 1E-06 V/s
3.76774	0.0595703	2.2	23	0	dWE(1).Potential/dt < 1E-06 V/s
3.86774	0.0595703	2.3	24	0	dWE(1).Potential/dt < 1E-06 V/s
3.96774	0.0595703	2.4	25	0	dWE(1).Potential/dt < 1E-06 V/s
4.06774	0.0595703	2.5	26	0	dWE(1).Potential/dt < 1E-06 V/s , dWE(1).Potential/dt > -1E-06 V/s
4.16774	0.0595703	2.6	27	0	dWE(1).Potential/dt < 1E-06 V/s , dWE(1).Potential/dt > -1E-06 V/s
4.26774	0.0595703	2.7	28	0	dWE(1).Potential/dt < 1E-06 V/s , dWE(1).Potential/dt > -1E-06 V/s
4.36774	0.0595703	2.8	29	0	dWE(1).Potential/dt < 1E-06 V/s , dWE(1).Potential/dt > -1E-06 V/s
4.46774	0.0595703	2.9	30	0	dWE(1).Potential/dt < 1E-06 V/s , dWE(1).Potential/dt > -1E-06 V/s

File: Z_p27_1.txt
Index	Frequency (Hz)	Z' (Ω)	-Z'' (Ω)	Z (Ω)	-Phase (°)	Time (s)
1	1000000	2328.5	3535.47	4233.38	56.6306	140.148
2	794330	3013.57	3799.96	4849.88	51.5837	141.878
3	630960	3916.38	4078.89	5654.67	46.1644	143.273
4	501190	4832.22	4308.61	6474.14	41.7216	144.773
5	398110	5867.01	4420.08	7345.67	36.9936	149.639
6	316230	6743.63	4356.75	8028.56	32.8646	150.964
7	251190	7430.85	4069.99	8472.44	28.7102	155.019
8	199530	8149.27	3904.5	9036.35	25.6001	156.319
9	158490	8807.96	3703.81	9555.02	22.8071	157.729
10	125890	9393.08	3469.42	10013.3	20.2722	159.019
11	100000	9927.75	3225.31	10438.5	17.9979	160.459
12	79433	10402.7	2969.71	10818.3	15.9327	161.769
13	63096	10802.2	2725.33	11140.7	14.1599	163.184
14	50119	11191.9	2480.03	11463.4	12.4944	164.609
15	39811	11503.5	2241.7	11719.9	11.0271	165.919
16	31623	11777.6	2029.47	11951.2	9.77692	167.254
17	25119	12016.3	1853.36	12158.4	8.76805	168.564
18	19953	12238.4	1702.74	12356.3	7.92075	169.899
19	15849	12421.4	1561.66	12519.2	7.1658	171.199
20	12589	12609.4	1436.98	12691	6.50141	172.514
21	10000	12759.3	1364.19	12832	6.10272	174.729
22	7943.3	12920.3	1282.63	12983.8	5.6693	175.959
23	6309.6	13074.6	1218.67	13131.3	5.32508	177.279
24	5011.9	13222	1167.75	13273.5	5.04716	178.629
25	3981.1	13371.9	1128.75	13419.5	4.82501	179.929
26	3162.3	13511.7	1099.3	13556.4	4.65127	181.229
27	2511.9	13650.2	1079.07	13692.8	4.51993	182.559
28	1995.3	13794.3	1067.96	13835.5	4.42705	183.904
29	1584.9	13934.7	1060.34	13975	4.35146	185.079
30	1258.9	14089.9	1065.84	14130.2	4.32593	186.359
31	1000	14230.5	1065.72	14270.3	4.28288	187.689
32	794.33	14382.7	1072.56	14422.7	4.26481	189.124
33	630.96	14531.2	1083.53	14571.6	4.26439	190.424
34	501.19	14691.4	1096.77	14732.2	4.26946	191.754
35	398.11	14852.9	1113.62	14894.6	4.28783	192.934
36	316.23	15011.2	1133.21	15053.9	4.31712	194.289
37	251.19	15172.4	1153.81	15216.2	4.34878	195.669
38	199.53	15341.7	1177.22	15386.8	4.38791	196.904
39	158.49	15516.4	1206.04	15563.2	4.44447	198.274
40	125.89	15684.6	1233.28	15733	4.49593	199.669
41	100	15870.5	1265.62	15920.9	4.55951	201.029
42	79.433	16042.9	1300.45	16095.5	4.63432	202.45
43	63.096	16234.5	1322.19	16288.2	4.6561	203.93
44	50.119	16450.5	1343.4	16505.2	4.66862	222.04
45	39.811	16667.1	1431.29	16728.4	4.90824	231.14
46	31.623	16872.2	1473	16936.3	4.98947	232.77
47	25.119	17090.6	1533.54	17159.3	5.12741	234.35
48	19.953	17304.4	1601.85	17378.4	5.28874	236.27
49	15.849	17503.8	1667.47	17583.1	5.44175	238.22
50	12.589	17746.9	1730.71	17831	5.56998	240.205
51	10	17991.5	1813.89	18082.7	5.75707	242.47
52	7.9433	18228.7	1901.86	18327.7	5.95629	244.79
53	6.3096	18518.2	2014.79	18627.5	6.20939	247.105
54	5.0119	18759.2	2141.62	18881	6.51292	250.435
55	3.9811	19041.2	2260.95	19175	6.77157	252.745
56	3.1623	19341.6	2377.76	19487.2	7.00849	255.19
57	2.5119	19845.2	2583.39	20012.6	7.4169	257.806
58	1.9953	20005.4	2758.66	20194.7	7.85135	260.426
59	1.5849	20311.3	3025.19	20535.4	8.47141	263.126
60	1.2589	20669.2	3469.68	20958.4	9.52924	266.066
61	1	21039	3595.86	21344.1	9.69893	271.181
62	0.79433	21404.8	3944.2	21765.2	10.4406	274.326
63	0.63096	21809.3	4382.97	22245.4	11.3632	277.826
64	0.50119	22168	4908.59	22705	12.4854	281.626
65	0.39811	22593.9	5569.92	23270.3	13.8486	285.846
66	0.31623	22973.7	6471.87	23867.9	15.7329	290.586
67	0.25119	23583.9	7419.76	24723.6	17.4641	295.986
68	0.19953	24171.9	8686.01	25685.1	19.7656	302.261
69	0.15849	24749.3	10143.7	26747.4	22.2868	309.591
70	0.12589	25235.9	12097.8	27985.8	25.6126	318.112
71	0.1	26362.4	14468.7	30071.9	28.7597	328.362

File: Z_p28_1.txt
Index	Frequency (Hz)	Z' (Ω)	-Z'' (Ω)	Z (Ω)	-Phase (°)	Time (s)
1	1000000	2406.86	3744.23	4451.1	57.2663	133.51
2	794330	3163.62	4020.82	5116.19	51.804	134.95
3	630960	4111.23	4348.89	5984.57	46.6091	136.34
4	501190	5137.47	4525.43	6846.39	41.3758	137.835
5	398110	6222.79	4666.75	7778.28	36.8679	142.9
6	316230	7146.11	4574.14	8484.67	32.6228	144.215
7	251190	7844.51	4268.01	8930.41	28.5495	148.256
8	199530	8614	4073.44	9528.59	25.3088	149.571
9	158490	9298.66	3839.82	10060.3	22.4379	150.871
10	125890	9924.41	3575.99	10549	19.8152	152.201
11	100000	10453.7	3286.85	10958.2	17.4542	153.646
12	79433	10921.9	3023.88	11332.8	15.4754	154.926
13	63096	11331.5	2742.62	11658.7	13.606	156.241
14	50119	11714.3	2485.61	11975.1	11.9797	157.636
15	39811	12028.4	2243.21	12235.8	10.5639	158.961
16	31623	12278	2010.76	12441.5	9.30079	160.271
17	25119	12510.4	1817.54	12641.7	8.26627	161.606
18	19953	12720.9	1655.95	12828.3	7.41679	162.921
19	15849	12906.4	1513.46	12994.9	6.68819	164.276
20	12589	13064.8	1393.43	13138.9	6.0879	165.611
21	10000	13197.2	1316.63	13262.7	5.69733	166.956
22	7943.3	13351.8	1237.25	13409	5.2942	168.266
23	6309.6	13495.7	1172.29	13546.5	4.96449	169.576
24	5011.9	13641.5	1124.5	13687.8	4.71235	170.911
25	3981.1	13773.8	1087.01	13816.6	4.51236	172.216
26	3162.3	13908.1	1059.85	13948.4	4.35773	173.571
27	2511.9	14040.4	1041.91	14079	4.24403	174.906
28	1995.3	14176.9	1032.26	14214.5	4.1645	176.206
29	1584.9	14314	1028.58	14350.9	4.1101	177.481
30	1258.9	14457.2	1032.93	14494.1	4.08671	178.776
31	1000	14602.7	1038.17	14639.5	4.06657	180.136
32	794.33	14748.7	1045.56	14785.7	4.05502	181.556
33	630.96	14894.9	1056.56	14932.3	4.05747	182.856
34	501.19	15049.7	1069.14	15087.7	4.06349	184.191
35	398.11	15202.4	1082.79	15240.9	4.07401	185.571
36	316.23	15370.1	1099.31	15409.4	4.09097	186.876
37	251.19	15526.3	1116.08	15566.4	4.11153	188.251
38	199.53	15692.7	1131.85	15733.5	4.12535	189.566
39	158.49	15849.9	1148.86	15891.5	4.14576	190.921
40	125.89	16025.8	1166.31	16068.1	4.1625	192.301
41	100	16193.1	1185.54	16236.5	4.18731	193.686
42	79.433	16373.2	1202.18	16417.3	4.19934	195.116
43	63.096	16541.2	1240.22	16587.7	4.28786	196.586
44	50.119	16647.5	1196.52	16690.5	4.11099	206.397
45	39.811	16927.7	1259.36	16974.5	4.25475	215.407
46	31.623	17128.5	1285.38	17176.7	4.29162	217.042
47	25.119	17313.6	1289.48	17361.6	4.25941	218.617
48	19.953	17491.4	1309.58	17540.3	4.28175	220.507
49	15.849	17700.9	1327.81	17750.6	4.28993	222.457
50	12.589	17866.4	1344.73	17916.9	4.30429	224.427
51	10	18066.4	1349.18	18116.7	4.27086	226.737
52	7.9433	18259.9	1363.06	18310.7	4.26908	229.067
53	6.3096	18451.3	1386.1	18503.3	4.29612	231.392
54	5.0119	18649.9	1430.77	18704.7	4.387	233.772
55	3.9811	18820.8	1469.44	18878	4.46435	236.187
56	3.1623	18988.4	1482.24	19046.2	4.46345	238.652
57	2.5119	19017	1513.96	19077.1	4.55177	241.262
58	1.9953	19337.6	1591.91	19403	4.7061	243.887
59	1.5849	19534.6	1822.95	19619.4	5.33135	246.672
60	1.2589	19506.3	2015.53	19610.1	5.89927	249.512
61	1	19807	2247.55	19934.1	6.47379	252.782
62	0.79433	19960.4	2540.61	20121.5	7.25374	258.058
63	0.63096	20130.8	2899.81	20338.6	8.19696	261.463
64	0.50119	20344	3403.01	20626.6	9.49613	265.283
65	0.39811	20555.9	4016.15	20944.6	11.055	269.518
66	0.31623	20879	4776.27	21418.3	12.8853	274.333
67	0.25119	21100.6	5635.02	21840.1	14.9522	279.713
68	0.19953	21468.9	6681.59	22484.6	17.2873	285.913
69	0.15849	21850.9	8068.28	23292.9	20.2663	293.193
70	0.12589	22540	9723.11	24547.7	23.334	301.783
71	0.1	22946.7	11381.1	25614.1	26.3805	311.964

File: Z_p29_1.txt
Index	Frequency (Hz)	Z' (Ω)	-Z'' (Ω)	Z (Ω)	-Phase (°)	Time (s)
1	1000000	2281.02	3578.13	4243.36	57.483	133.387
2	794330	2976.34	3864.86	4878.08	52.4	134.817
3	630960	3848.34	4214.47	5707.14	47.6	136.212
4	501190	4760.07	4485.3	6540.35	43.2977	137.717
5	398110	5859.11	4664.42	7489.06	38.5232	142.777
6	316230	6777.5	4651.1	8219.93	34.4601	144.097
7	251190	7465.72	4465.46	8699.27	30.8848	148.158
8	199530	8301.19	4366.3	9379.46	27.7437	149.483
9	158490	9069.16	4221.79	10003.7	24.9625	150.798
10	125890	9753.52	4016.31	10548.1	22.3809	152.108
11	100000	10406.6	3765.08	11066.7	19.89	153.553
12	79433	11005.6	3517.77	11554.1	17.7258	154.863
13	63096	11534.7	3220.39	11975.8	15.5993	156.328
14	50119	11992.6	2954.23	12351.1	13.8386	157.638
15	39811	12398	2648.2	12677.7	12.0572	158.943
16	31623	12723.5	2364.35	12941.3	10.527	160.298
17	25119	13009.2	2127.87	13182.1	9.28938	161.608
18	19953	13213.9	1909.13	13351.2	8.22109	162.938
19	15849	13473.4	1719.38	13582.6	7.27239	164.253
20	12589	13659.8	1553.22	13747.8	6.48709	165.573
21	10000	13791.6	1433.97	13865.9	5.93595	166.918
22	7943.3	13948.6	1318.82	14010.8	5.4012	168.263
23	6309.6	14096.2	1226.26	14149.4	4.9718	169.588
24	5011.9	14240.2	1150.74	14286.6	4.62	170.888
25	3981.1	14364.3	1086.93	14405.4	4.32723	172.208
26	3162.3	14493.8	1046.15	14531.5	4.12842	173.513
27	2511.9	14615.5	1010.77	14650.4	3.95612	174.853
28	1995.3	14747.1	985.399	14779.9	3.82282	176.168
29	1584.9	14869.1	967.964	14900.6	3.72463	177.443
30	1258.9	14998.6	960.312	15029.3	3.66346	178.743
31	1000	15120.7	945.324	15150.2	3.57739	180.078
32	794.33	15253.2	943.15	15282.4	3.53825	181.513
33	630.96	15394.4	942.623	15423.3	3.50393	182.818
34	501.19	15525.4	944.274	15554.1	3.48051	184.178
35	398.11	15657.9	942.656	15686.2	3.44524	185.478
36	316.23	15796.9	951.007	15825.5	3.44516	186.813
37	251.19	15936.8	956.377	15965.5	3.43423	188.193
38	199.53	16073.9	961.721	16102.6	3.42399	189.418
39	158.49	16220.1	968.068	16249	3.41554	190.768
40	125.89	16361.7	974.978	16390.7	3.41017	192.168
41	100	16507.4	978.93	16536.4	3.39381	193.468
42	79.433	16643.2	985.827	16672.3	3.38985	194.913
43	63.096	16763.9	976.76	16792.3	3.33461	196.393
44	50.119	16995.3	957.456	17022.3	3.22443	206.194
45	39.811	17091.8	996	17120.8	3.33506	215.234
46	31.623	17246.3	1004.72	17275.6	3.33411	216.894
47	25.119	17396.3	998.388	17425	3.28464	218.469
48	19.953	17527.5	1001.34	17556.1	3.26974	220.354
49	15.849	17695.2	1023.61	17724.8	3.3107	222.319
50	12.589	17837.3	999.133	17865.2	3.206	224.374
51	10	17967.4	1016.65	17996.2	3.23853	226.564
52	7.9433	18113.1	1004.41	18140.9	3.17391	228.889
53	6.3096	18252.6	1036.08	18282	3.24881	231.194
54	5.0119	18354	1050.89	18384	3.27701	233.569
55	3.9811	18485	1088.97	18517	3.37146	236.004
56	3.1623	18609.3	1119.54	18642.9	3.44277	238.484
57	2.5119	18592.9	1070.27	18623.7	3.29449	241.024
58	1.9953	18733.2	1197.77	18771.4	3.65842	243.699
59	1.5849	18943.8	1361.38	18992.6	4.11047	246.449
60	1.2589	19069.8	1340.98	19116.9	4.02239	249.334
61	1	19245	1635.2	19314.3	4.85662	254.374
62	0.79433	19386.6	1832.98	19473	5.4012	257.545
63	0.63096	19492	2068.16	19601.4	6.05659	261.035
64	0.50119	19693.4	2405.15	19839.7	6.96304	264.865
65	0.39811	19816.1	2824.45	20016.3	8.11191	269.085
66	0.31623	20050.6	3310.77	20322.1	9.37612	273.835
67	0.25119	20184.6	3941.11	20565.7	11.0482	279.295
68	0.19953	20417.1	4688.04	20948.4	12.9317	285.565
69	0.15849	20702.8	5657.6	21462	15.2844	292.805
70	0.12589	21162.1	6738.02	22208.9	17.6615	301.34
71	0.1	21370.1	8020.93	22825.8	20.5728	311.566