Folder: Streamlit_cement_impedance/data/20200619 (part 17)

File: Z_p55_1.txt
Index	Frequency (Hz)	Z' (Ω)	-Z'' (Ω)	Z (Ω)	-Phase (°)	Time (s)
1	1000000	2554.17	1803.36	3126.64	35.2238	139.75
2	794330	2820.06	1691.86	3288.64	30.9611	141.145
3	630960	3136.91	1619.62	3530.35	27.3077	142.59
4	501190	3436.99	1533.67	3763.64	24.0476	144.205
5	398110	3738.17	1434.37	4003.91	20.9923	149.286
6	316230	3993.82	1331.31	4209.86	18.4355	150.666
7	251190	4150.26	1175.75	4313.59	15.8172	154.711
8	199530	4354.72	1080.69	4486.81	13.9373	156.061
9	158490	4523.73	979.368	4628.53	12.2158	157.531
10	125890	4669.46	879.915	4751.64	10.6717	158.811
11	100000	4784.2	784.136	4848.03	9.30809	160.196
12	79433	4884.86	695.168	4934.07	8.09942	161.501
13	63096	4968.35	615.187	5006.29	7.0585	162.866
14	50119	5036.73	542.224	5065.83	6.14446	164.161
15	39811	5096.01	476.889	5118.27	5.34622	165.456
16	31623	5145.09	422.508	5162.41	4.69452	166.911
17	25119	5185.23	375.281	5198.79	4.13956	168.296
18	19953	5223.64	335.854	5234.42	3.67877	169.601
19	15849	5259.78	302.915	5268.5	3.29607	170.891
20	12589	5288.49	275.514	5295.66	2.98224	172.271
21	10000	5318.04	252.533	5324.04	2.71871	173.556
22	7943.3	5343.02	232.399	5348.08	2.49056	174.831
23	6309.6	5370.68	217.389	5375.08	2.3179	176.126
24	5011.9	5393.86	204.828	5397.75	2.17472	177.496
25	3981.1	5419.33	195.35	5422.85	2.06445	178.761
26	3162.3	5438.22	188.026	5441.47	1.98021	180.026
27	2511.9	5462.52	182.415	5465.57	1.91262	181.356
28	1995.3	5483.67	178.626	5486.58	1.8657	182.806
29	1584.9	5503.35	177.159	5506.2	1.84378	184.061
30	1258.9	5523.16	175.247	5525.94	1.81736	185.316
31	1000	5548.07	177.213	5550.9	1.82948	186.706
32	794.33	5570.62	179.395	5573.51	1.8445	188.191
33	630.96	5591.17	183.088	5594.16	1.87554	189.496
34	501.19	5616.97	188.85	5620.15	1.92564	190.936
35	398.11	5638.98	196.218	5642.4	1.9929	192.296
36	316.23	5662.2	205.086	5665.91	2.07436	193.516
37	251.19	5689.88	217.661	5694.04	2.19073	194.846
38	199.53	5716.86	232.065	5721.56	2.32454	196.171
39	158.49	5748.31	250.12	5753.75	2.49148	197.446
40	125.89	5776.37	271.505	5782.74	2.69108	198.831
41	100	5808.37	295.083	5815.86	2.9083	200.176
42	79.433	5844.91	324.064	5853.88	3.17345	201.697
43	63.096	5885.45	354.427	5896.11	3.44624	203.272
44	50.119	5913.62	379.826	5925.8	3.67501	204.797
45	39.811	5975.13	431.568	5990.69	4.13116	213.942
46	31.623	6032.48	475.8	6051.22	4.50975	215.547
47	25.119	6088.73	527.986	6111.58	4.95602	217.292
48	19.953	6151.55	589.293	6179.71	5.472	219.157
49	15.849	6220.72	654.644	6255.07	6.00747	221.092
50	12.589	6295.89	733.121	6338.43	6.64186	223.212
51	10	6380.96	818.862	6433.29	7.31273	225.557
52	7.9433	6470.32	920.115	6535.41	8.09351	227.827
53	6.3096	6569.92	1036.22	6651.13	8.96294	230.252
54	5.0119	6672.87	1171.65	6774.95	9.95869	232.577
55	3.9811	6794.89	1329.63	6923.76	11.0718	235.007
56	3.1623	6930.96	1513.91	7094.37	12.3215	237.542
57	2.5119	7073.99	1729.97	7282.45	13.7422	240.132
58	1.9953	7240.21	2009.44	7513.88	15.5114	242.712
59	1.5849	7401.4	2297.05	7749.65	17.2419	245.457
60	1.2589	7646.81	2660.04	8096.26	19.1809	248.267
61	1	7837.11	3087.16	8423.23	21.5002	253.307
62	0.79433	8100.36	3603	8865.52	23.9793	256.413
63	0.63096	8402.99	4205.58	9396.65	26.5874	259.978
64	0.50119	8708.46	4931.7	10007.9	29.5234	263.858
65	0.39811	9092.49	5815.3	10793.1	32.6019	268.063
66	0.31623	9491.48	6900.17	11734.6	36.0166	272.788
67	0.25119	10071.2	8170.57	12968.7	39.0517	278.278
68	0.19953	10683.6	9717.93	14442.2	42.29	284.478
69	0.15849	11388.7	11517	16197	45.321	291.783
70	0.12589	12103.9	13716.8	18293.6	48.5745	300.368
71	0.1	13201.1	16489.2	21122.6	51.3197	310.559

File: Z_p55_2.txt
Index	Frequency (Hz)	Z' (Ω)	-Z'' (Ω)	Z (Ω)	-Phase (°)	Time (s)
1	1000000	2559.89	1818.75	3140.21	35.3931	456.236
2	794330	2825.21	1694.89	3294.61	30.9602	457.661
3	630960	3137	1619.7	3530.47	27.3083	459.096
4	501190	3445.49	1541.28	3774.52	24.1005	460.581
5	398110	3744.88	1434.62	4010.27	20.9613	465.641
6	316230	4004.89	1328.61	4219.52	18.3531	466.956
7	251190	4150.42	1173.51	4313.13	15.788	471.016
8	199530	4355.21	1080.88	4487.33	13.9381	472.366
9	158490	4525.89	983.801	4631.58	12.2637	473.786
10	125890	4668.23	879.582	4750.37	10.6705	475.051
11	100000	4788.6	783.817	4852.33	9.29596	476.436
12	79433	4888.39	695.439	4937.61	8.09675	477.701
13	63096	4969.57	614.256	5007.39	7.04623	479.181
14	50119	5039.51	542.171	5068.59	6.14049	480.626
15	39811	5097.01	477.161	5119.3	5.34821	482.012
16	31623	5146.54	420.839	5163.72	4.67475	483.297
17	25119	5188.51	375.319	5202.07	4.13737	484.627
18	19953	5227.8	337.4	5238.68	3.69272	485.952
19	15849	5262.44	302.948	5271.15	3.29477	487.262
20	12589	5292.61	274.606	5299.73	2.97012	488.547
21	10000	5318.67	251.845	5324.63	2.711	489.842
22	7943.3	5348.16	232.742	5353.23	2.49183	491.267
23	6309.6	5373.72	218.258	5378.15	2.32584	492.582
24	5011.9	5399.5	205.118	5403.39	2.17553	493.902
25	3981.1	5418.17	194.907	5421.68	2.0602	495.267
26	3162.3	5442.14	188.07	5445.39	1.97925	496.612
27	2511.9	5463.58	182.274	5466.62	1.91077	497.962
28	1995.3	5483.07	179.199	5485.99	1.87188	499.277
29	1584.9	5506.79	176.516	5509.62	1.83594	500.567
30	1258.9	5528.72	176.869	5531.55	1.83232	501.817
31	1000	5549.34	176.836	5552.15	1.82518	503.132
32	794.33	5574.64	179.686	5577.54	1.84616	504.642
33	630.96	5596.11	183.54	5599.12	1.8785	506.032
34	501.19	5620.22	188.869	5623.4	1.92471	507.382
35	398.11	5643.42	196.866	5646.86	1.99791	508.667
36	316.23	5670.46	205.861	5674.2	2.07916	509.967
37	251.19	5693.9	217.795	5698.06	2.19053	511.277
38	199.53	5718.58	233.749	5723.35	2.34069	512.582
39	158.49	5750.99	251.426	5756.48	2.50331	513.922
40	125.89	5780.19	271.49	5786.56	2.68915	515.352
41	100	5817.06	296.5	5824.61	2.91789	516.717
42	79.433	5851.18	325.128	5860.2	3.18045	518.107
43	63.096	5890.57	354.046	5901.2	3.43956	519.542
44	50.119	5928.47	395.582	5941.65	3.81745	520.897
45	39.811	5982.31	433.198	5997.97	4.14174	530.172
46	31.623	6035.9	479.877	6054.95	4.54567	531.807
47	25.119	6094.81	528.416	6117.68	4.95511	533.377
48	19.953	6157.46	591.701	6185.82	5.48898	535.328
49	15.849	6229.06	658.397	6263.76	6.03362	537.313
50	12.589	6306.78	734.883	6349.45	6.64629	539.298
51	10	6386.59	822.585	6439.34	7.33923	541.533
52	7.9433	6478.3	921.394	6543.5	8.09476	543.808
53	6.3096	6575.06	1040.89	6656.94	8.99579	546.213
54	5.0119	6682.17	1175.4	6784.76	9.97634	548.618
55	3.9811	6803.6	1335.5	6933.43	11.1055	551.033
56	3.1623	6947.52	1518.42	7111.52	12.3284	553.523
57	2.5119	7080.07	1741.67	7291.14	13.8201	556.088
58	1.9953	7240.24	1990.08	7508.76	15.369	558.813
59	1.5849	7430.86	2300.98	7778.96	17.2052	561.613
60	1.2589	7637.01	2672.49	8091.12	19.2869	564.483
61	1	7853.62	3092.74	8440.64	21.4944	569.463
62	0.79433	8126.12	3611.58	8892.54	23.9623	572.633
63	0.63096	8400.87	4204.32	9394.19	26.5862	576.213
64	0.50119	8721.68	4961.69	10034.2	29.6352	580.048
65	0.39811	9081.83	5842.6	10798.9	32.7543	584.318
66	0.31623	9540.07	6939.21	11796.9	36.0312	589.144
67	0.25119	10047.4	8169.53	12949.6	39.1145	594.569
68	0.19953	10672.7	9684.04	14411.4	42.2195	600.849
69	0.15849	11325.3	11525.5	16158.6	45.5019	608.074
70	0.12589	12162	13836.1	18421.5	48.6844	616.599
71	0.1	13223.2	16349.8	21027.8	51.0351	626.754

File: Z_p55_3.txt
Index	Frequency (Hz)	Z' (Ω)	-Z'' (Ω)	Z (Ω)	-Phase (°)	Time (s)
1	1000000	2565.36	1802.96	3135.56	35.0999	733.08
2	794330	2824.06	1701.51	3297.04	31.0692	735.161
3	630960	3136.57	1621.55	3530.93	27.3382	737.237
4	501190	3453.35	1544.36	3782.95	24.0945	739.388
5	398110	3749.62	1438.61	4016.12	20.9902	746.342
6	316230	4008.95	1344.21	4228.31	18.5364	748.408
7	251190	4156.49	1177.54	4320.07	15.8175	755.102
8	199530	4360.35	1084.1	4493.1	13.9621	757.358
9	158490	4528.18	985.174	4634.11	12.2743	759.379
10	125890	4677.13	882.892	4759.73	10.6898	761.306
11	100000	4793.49	785.702	4857.45	9.3086	763.402
12	79433	4892.76	696.983	4942.15	8.10735	765.403
13	63096	4975.84	616.974	5013.94	7.06825	767.539
14	50119	5046.82	543.171	5075.96	6.1429	769.62
15	39811	5106.08	477.898	5128.4	5.34696	771.721
16	31623	5151.19	421.316	5168.39	4.67582	773.712
17	25119	5195.05	376.973	5208.71	4.15033	775.748
18	19953	5233.42	336.619	5244.24	3.68025	777.729
19	15849	5270.84	304.103	5279.61	3.30204	779.715
20	12589	5299.66	275.702	5306.83	2.97799	781.736
21	10000	5325.02	252.938	5331.03	2.7195	783.682
22	7943.3	5355.3	233.258	5360.37	2.49403	785.718
23	6309.6	5381.35	218.222	5385.77	2.32216	787.684
24	5011.9	5405.53	205.555	5409.44	2.17772	789.79
25	3981.1	5427.91	195.931	5431.45	2.06731	791.891
26	3162.3	5448.47	188.428	5451.73	1.98071	793.827
27	2511.9	5471.05	183.264	5474.12	1.91852	795.968
28	1995.3	5492.55	179.7	5495.49	1.87388	798.114
29	1584.9	5515.19	177.709	5518.05	1.84553	800.02
30	1258.9	5534.83	175.962	5537.62	1.82092	802.036
31	1000	5558.43	177.582	5561.27	1.82988	804.122
32	794.33	5582.62	180.106	5585.52	1.84784	806.388
33	630.96	5604.1	184.013	5607.12	1.88066	808.349
34	501.19	5626.84	189.588	5630.04	1.92976	810.48
35	398.11	5652.9	197.302	5656.34	1.99897	812.426
36	316.23	5674.77	206.842	5678.54	2.08747	814.422
37	251.19	5704.17	219.21	5708.38	2.20078	816.434
38	199.53	5729.93	233.712	5734.7	2.33568	818.475
39	158.49	5760.78	251.664	5766.27	2.50142	820.506
40	125.89	5787.44	273.465	5793.89	2.7053	822.532
41	100	5822.17	298.294	5829.81	2.93294	824.528
42	79.433	5861.64	326.543	5870.73	3.18856	826.719
43	63.096	5900.88	358.527	5911.76	3.47691	828.82
44	50.119	5925.73	392.852	5938.74	3.79292	830.961
45	39.811	5992.05	436.134	6007.9	4.16295	840.682
46	31.623	6046.12	480.855	6065.22	4.54722	842.983
47	25.119	6102.07	534.558	6125.44	5.00648	845.369
48	19.953	6167.33	595.914	6196.05	5.51903	847.89
49	15.849	6238.79	662.993	6273.91	6.06603	850.476
50	12.589	6316.61	739.614	6359.77	6.67837	853.177
51	10	6397.56	824.938	6450.53	7.3475	856.088
52	7.9433	6491.63	926.443	6557.4	8.12203	859.034
53	6.3096	6589.86	1045.64	6672.3	9.01618	861.98
54	5.0119	6699.14	1183.6	6802.89	10.0196	865.051
55	3.9811	6819.63	1338.87	6949.81	11.1074	868.152
56	3.1623	6953.34	1526.49	7118.93	12.3819	871.234
57	2.5119	7107.75	1748.69	7319.7	13.8217	874.645
58	1.9953	7271.01	2003.42	7541.97	15.4048	878.056
59	1.5849	7442.16	2307.39	7791.65	17.2257	881.457
60	1.2589	7614.71	2669.52	8069.08	19.3194	885.058
61	1	7872.62	3108.31	8464.02	21.5453	891.535
62	0.79433	8150.89	3622.34	8919.55	23.9609	895.461
63	0.63096	8423.05	4236.22	9428.33	26.6993	899.657
64	0.50119	8758.94	4980.9	10076.1	29.6254	904.243
65	0.39811	9136.04	5885.36	10867.6	32.7893	909.354
66	0.31623	9545.76	6933.19	11797.9	35.9913	914.975
67	0.25119	10060.4	8259.24	13016.4	39.3848	921.101
68	0.19953	10744.1	9750.42	14508.9	42.2241	928.168
69	0.15849	11457.1	11658.2	16345.6	45.4984	936.294
70	0.12589	12304.8	13827.8	18509.9	48.3354	945.485
71	0.1	13221.6	16390.8	21058.7	51.1088	956.376