Folder: Streamlit_cement_impedance/data/20200619 (part 4)

File: Z_p24_3.txt
Index	Frequency (Hz)	Z' (Ω)	-Z'' (Ω)	Z (Ω)	-Phase (°)	Time (s)
1	1000000	3475.68	6826.38	7660.27	63.0169	798.074
2	794330	5001.56	7088.35	8675.27	54.7931	800.454
3	630960	6623.57	7778.79	10216.7	49.5859	803.209
4	501190	8347.62	8518.02	11926.4	45.5789	806.379
5	398110	10423.3	9784.51	14296.2	43.1895	816.185
6	316230	12279.8	10202.6	15965.2	39.7214	818.575
7	251190	13944.5	10477	17441.8	36.9189	828.55
8	199530	15825.1	10850.6	19187.8	34.4368	830.85
9	158490	17729.3	11021.3	20875.8	31.8668	833.355
10	125890	19674.7	11103.4	22591.5	29.4382	835.85
11	100000	21573.7	11070.4	24248.2	27.1644	838.3
12	79433	23347.1	10823.3	25733.8	24.8715	840.5
13	63096	25257.5	10651.8	27411.7	22.8666	842.81
14	50119	27086.7	10286.4	28974.1	20.7947	845.305
15	39811	28705.1	9795.2	30330.3	18.8415	847.745
16	31623	30189.7	9162.18	31549.4	16.8823	850.2
17	25119	31611.1	8537.68	32743.7	15.1141	852.5
18	19953	32836.1	7914.77	33776.6	13.552	854.52
19	15849	33998.6	7242.56	34761.4	12.0257	856.725
20	12589	34988	6606.65	35606.3	10.693	858.805
21	10000	35881.9	5920.79	36367.1	9.36982	862.75
22	7943.3	36644.1	5336.42	37030.6	8.28565	864.785
23	6309.6	37322.1	4795.95	37629	7.32248	866.855
24	5011.9	37894.7	4305.66	38138.6	6.48224	869.071
25	3981.1	38391.3	3862.44	38585.1	5.74503	871.136
26	3162.3	38821.8	3471.48	38976.7	5.10985	873.241
27	2511.9	39212.1	3118.06	39335.9	4.54647	875.306
28	1995.3	39558.9	2821.42	39659.4	4.07953	877.521
29	1584.9	39888.2	2551.06	39969.7	3.65938	879.501
30	1258.9	40158.2	2322.78	40225.4	3.31033	881.731
31	1000	40416.3	2123.75	40472	3.00796	884.116
32	794.33	40639.8	1952.66	40686.7	2.75083	886.216
33	630.96	40869.1	1809.18	40909.1	2.53469	888.376
34	501.19	41071.4	1686.98	41106	2.35207	890.636
35	398.11	41276	1582.35	41306.3	2.1954	892.736
36	316.23	41448	1504.43	41475.3	2.07874	894.726
37	251.19	41639.9	1439.09	41664.8	1.97938	896.836
38	199.53	41796.6	1387.31	41819.6	1.90107	898.866
39	158.49	41976.6	1354.9	41998.5	1.84872	901.086
40	125.89	42129.4	1331.36	42150.5	1.81003	903.271
41	100	42298.2	1327.54	42319.1	1.79765	905.396
42	79.433	42433.9	1335.6	42454.9	1.80278	907.586
43	63.096	42617.4	1342.72	42638.5	1.80459	909.891
44	50.119	42791.9	1374.92	42814	1.8403	912.471
45	39.811	42930.4	1439.25	42954.5	1.92013	922.506
46	31.623	43103.4	1505.19	43129.7	1.99998	925.282
47	25.119	43284.4	1601.63	43314	2.11912	927.702
48	19.953	43476.5	1728.08	43510.9	2.27616	930.382
49	15.849	43658.7	1871.86	43698.8	2.45504	933.147
50	12.589	43895.2	2038.85	43942.5	2.65937	935.962
51	10	44141.7	2245.47	44198.8	2.9121	939.092
52	7.9433	44377.7	2477.51	44446.8	3.19539	942.337
53	6.3096	44672.1	2745.22	44756.3	3.51655	945.467
54	5.0119	44974.6	3061.81	45078.7	3.8946	948.917
55	3.9811	45340.6	3420.49	45469.5	4.31421	952.307
56	3.1623	45720.2	3824.51	45879.9	4.78167	955.587
57	2.5119	46135.5	4304.6	46335.9	5.33046	958.952
58	1.9953	46581.1	4837.63	46831.6	5.92914	962.367
59	1.5849	47049	5495.87	47369	6.66261	965.907
60	1.2589	47592.6	6242.59	48000.3	7.47266	969.527
61	1	48158.7	7102.08	48679.6	8.38908	976.477
62	0.79433	48829.9	8105.77	49498.1	9.42516	980.493
63	0.63096	49393.4	9398.03	50279.6	10.7728	984.803
64	0.50119	50182.8	10985.1	51371	12.3474	989.388
65	0.39811	51063.5	12957.3	52681.8	14.2382	994.468
66	0.31623	51824.7	15272.4	54028.2	16.4199	1000.02
67	0.25119	53092.2	18213.9	56129.5	18.9352	1006.21
68	0.19953	54677.2	21122.1	58615.2	21.1218	1013.26
69	0.15849	56495.4	25252.5	61882.3	24.0839	1021.35
70	0.12589	58678	29937.2	65873.8	27.0304	1030.8
71	0.1	60522.5	35121	69974.6	30.1264	1041.72

File: Z_p25_1.txt
Index	Frequency (Hz)	Z' (Ω)	-Z'' (Ω)	Z (Ω)	-Phase (°)	Time (s)
1	1000000	3669.23	8109.74	8901.19	65.6558	153.064
2	794330	5637.65	8528.68	10223.6	56.5344	155.269
3	630960	7695.41	9466.5	12199.8	50.892	156.929
4	501190	9830.95	10396.5	14308.6	46.6016	158.439
5	398110	12501.2	12386.5	17598.5	44.7358	163.734
6	316230	14695.6	13198.9	19752.7	41.9287	165.094
7	251190	16966.6	13312.5	21565.9	38.1187	171.009
8	199530	19370.6	13871.4	23825.1	35.6067	172.499
9	158490	21851.3	14163.6	26040.1	32.9506	174.094
10	125890	24292.7	14341.2	28210	30.5555	175.479
11	100000	26729.7	14348.1	30337.2	28.2262	176.924
12	79433	29135.4	14223.5	32421.8	26.021	178.399
13	63096	31534.3	13997.6	34501.4	23.9357	179.879
14	50119	33822.1	13620.8	36461.7	21.9356	181.749
15	39811	36121.6	13059.6	38409.9	19.8772	183.199
16	31623	38196.5	12343.6	40141.4	17.9088	184.594
17	25119	40000.2	11564.8	41638.4	16.1255	185.944
18	19953	41723.9	10790.4	43096.6	14.4998	187.229
19	15849	43250	10059.4	44404.5	13.0935	188.509
20	12589	44765.6	9267.85	45714.9	11.6967	189.829
21	10000	46045.3	8435.04	46811.6	10.3809	192.034
22	7943.3	47165.9	7687.31	47788.3	9.25692	193.474
23	6309.6	48175	6995.86	48680.3	8.2626	194.799
24	5011.9	49067.4	6347.78	49476.3	7.37134	196.059
25	3981.1	49830.8	5747.24	50161.1	6.57915	197.304
26	3162.3	50507.9	5209.97	50775.9	5.88932	198.664
27	2511.9	51124.9	4725.1	51342.8	5.28043	200.029
28	1995.3	51689	4297.82	51867.4	4.75308	201.384
29	1584.9	52183.2	3921.32	52330.3	4.29742	202.575
30	1258.9	52639.2	3595.4	52761.8	3.90739	204.01
31	1000	53045.6	3307.12	53148.6	3.56748	205.35
32	794.33	53391.5	3057.07	53478.9	3.27704	206.755
33	630.96	53740.9	2847.49	53816.3	3.03301	208.055
34	501.19	54080.1	2674.54	54146.2	2.83127	209.35
35	398.11	54413.7	2536.24	54472.8	2.66865	210.605
36	316.23	54705.6	2420.82	54759.1	2.53379	211.93
37	251.19	54989.8	2336.99	55039.4	2.43353	213.215
38	199.53	55264.6	2282.61	55311.7	2.36516	214.555
39	158.49	55516.8	2252.56	55562.5	2.32346	215.915
40	125.89	55783.6	2241.82	55828.6	2.30136	217.345
41	100	56025.7	2270.35	56071.7	2.32055	218.775
42	79.433	56298.7	2324.18	56346.6	2.364	220.18
43	63.096	56556.3	2412	56607.7	2.44206	221.71
44	50.119	56842.1	2491.69	56896.7	2.50997	223.21
45	39.811	57142.7	2660.49	57204.6	2.66569	232.305
46	31.623	57453.7	2835.84	57523.6	2.82575	233.915
47	25.119	57777.4	3065.38	57858.6	3.03698	235.45
48	19.953	58121.3	3352.7	58217.9	3.30142	237.345
49	15.849	58480.9	3684.58	58596.8	3.60515	239.305
50	12.589	58946.7	4062.57	59086.6	3.94256	241.405
51	10	59392.1	4524.73	59564.3	4.35661	243.71
52	7.9433	59906.8	5060.96	60120.1	4.82892	245.99
53	6.3096	60492.5	5686.11	60759.1	5.36985	248.44
54	5.0119	61096.6	6388.39	61429.7	5.96928	250.835
55	3.9811	61818.5	7208.82	62237.4	6.65137	253.24
56	3.1623	62601	8143.87	63128.5	7.41208	255.736
57	2.5119	63555.9	9217.37	64220.8	8.25195	258.326
58	1.9953	64525.4	10481.1	65371	9.22618	260.951
59	1.5849	65649.6	11857.5	66711.8	10.2383	263.771
60	1.2589	66816.4	13513.9	68169.4	11.4341	266.641
61	1	68298.4	15397.7	70012.6	12.7048	271.696
62	0.79433	69942.9	17543.2	72109.5	14.0806	274.781
63	0.63096	71631.6	20196.2	74424.3	15.7455	278.246
64	0.50119	73611.8	23166.2	77171	17.4692	282.111
65	0.39811	75947.5	26839.8	80550.6	19.4634	286.266
66	0.31623	78354.7	30980.5	84257	21.5733	291.041
67	0.25119	81754.1	36273.6	89439.9	23.9264	296.456
68	0.19953	85329.6	42216.9	95201.9	26.3239	302.696
69	0.15849	89622.6	48642.6	101972	28.4909	309.912
70	0.12589	94065.2	55917.1	109430	30.7294	318.437
71	0.1	99850.5	66079.7	119736	33.496	328.592

File: Z_p25_2.txt
Index	Frequency (Hz)	Z' (Ω)	-Z'' (Ω)	Z (Ω)	-Phase (°)	Time (s)
1	1000000	3655.71	8217.98	8994.41	66.0184	429.985
2	794330	5714.45	8590.81	10317.8	56.3689	431.43
3	630960	7720.81	9513.72	12252.4	50.9391	432.89
4	501190	9807.07	10454.8	14334.6	46.8309	434.42
5	398110	12562.3	12349.2	17615.7	44.5099	439.375
6	316230	14871	12953.3	19721.4	41.0575	440.655
7	251190	16976.6	13331.3	21585.4	38.1417	444.69
8	199530	19382.9	13832.4	23812.4	35.5131	445.95
9	158490	21833.7	14162.7	26024.8	32.9699	447.37
10	125890	24288.4	14320.7	28195.9	30.5241	448.7
11	100000	26709.4	14351	30320.7	28.2491	450.08
12	79433	29295.4	14516.1	32694.6	26.3587	451.34
13	63096	31498.3	13959.2	34452.9	23.9017	452.745
14	50119	33812	13613.5	36449.6	21.9309	454.15
15	39811	36043.7	13120.3	38357.4	20.0021	455.56
16	31623	38226.2	12311.7	40160	17.8525	456.83
17	25119	39961.7	11615.9	41615.7	16.2078	458.18
18	19953	41729.2	10851.9	43117.1	14.5772	459.485
19	15849	43306.5	10032.8	44453.5	13.0435	460.765
20	12589	44745.8	9282.43	45698.5	11.7197	462.05
21	10000	46006	8423.77	46770.8	10.376	464.28
22	7943.3	47134.6	7682.98	47756.7	9.25783	465.52
23	6309.6	48166.6	6993.32	48671.7	8.26106	466.82
24	5011.9	49038.8	6340.74	49447	7.36749	468.065
25	3981.1	49805.8	5743.69	50135.9	6.57839	469.345
26	3162.3	50502.5	5202.81	50769.8	5.88191	470.645
27	2511.9	51103.5	4716.99	51320.7	5.27361	471.97
28	1995.3	51639.1	4312.84	51818.9	4.7742	473.25
29	1584.9	52118.2	3918.64	52265.3	4.29984	474.53
30	1258.9	52578.9	3585.88	52701	3.90153	475.835
31	1000	53017	3306.25	53120	3.56846	477.085
32	794.33	53394.5	3057.15	53481.9	3.27695	478.455
33	630.96	53730.8	2853.11	53806.5	3.03956	479.785
34	501.19	54084.7	2676.93	54150.9	2.83355	481.07
35	398.11	54384.4	2536.8	54443.6	2.67066	482.3
36	316.23	54683.7	2425.15	54737.5	2.53933	483.64
37	251.19	54945.4	2342.44	54995.4	2.44117	484.991
38	199.53	55234.5	2292.66	55282	2.37685	486.281
39	158.49	55481.7	2260.87	55527.7	2.33351	487.636
40	125.89	55762.2	2265.7	55808.2	2.32673	489.021
41	100	56011.7	2284.34	56058.2	2.33542	490.391
42	79.433	56266.2	2334.07	56314.6	2.37542	491.806
43	63.096	56560.2	2415.06	56611.7	2.44498	493.251
44	50.119	56835	2539.03	56891.7	2.55791	494.731
45	39.811	57147.1	2683.58	57210.1	2.68858	503.831
46	31.623	57426.3	2870.09	57498	2.86119	505.431
47	25.119	57780.4	3099.02	57863.5	3.07008	506.986
48	19.953	58129.6	3399.22	58228.9	3.34665	508.821
49	15.849	58496.2	3742.88	58615.8	3.66109	510.716
50	12.589	58949.3	4138.58	59094.4	4.0159	512.631
51	10	59419.7	4601.06	59597.6	4.42776	514.921
52	7.9433	59905.8	5139.29	60125.8	4.90337	517.231
53	6.3096	60475.5	5766.62	60749.8	5.44695	519.616
54	5.0119	61131.7	6503.54	61476.6	6.07262	521.936
55	3.9811	61885.3	7329.73	62317.9	6.75468	524.421
56	3.1623	62695.6	8299.7	63242.6	7.54101	526.906
57	2.5119	63640	9403.41	64331	8.40517	529.521
58	1.9953	64684	10661	65556.7	9.35917	532.196
59	1.5849	65850	12070.7	66947.2	10.3874	534.941
60	1.2589	67106.4	13702.2	68491	11.5404	537.746
61	1	68518.6	15657.5	70284.8	12.8719	542.687
62	0.79433	70211.4	17866	72448.9	14.2765	545.817
63	0.63096	71787.5	20429.9	74637.9	15.8858	549.377
64	0.50119	73920	23604.5	77597.3	17.7096	553.162
65	0.39811	76126.1	27380.6	80900.4	19.7823	557.412
66	0.31623	79013.1	31567.9	85085.9	21.778	562.167
67	0.25119	81806.7	36756.7	89684.9	24.1949	567.607
68	0.19953	85326.2	42444.6	95300.1	26.4476	573.902
69	0.15849	89681.3	49486	102428	28.8899	581.157
70	0.12589	95440.4	57077.8	111206	30.8814	589.637
71	0.1	99878.7	65876.7	119647	33.4075	599.808

File: Z_p25_3.txt
Index	Frequency (Hz)	Z' (Ω)	-Z'' (Ω)	Z (Ω)	-Phase (°)	Time (s)
1	1000000	3646.65	8116.17	8897.77	65.8053	674.529
2	794330	5662.41	8529.39	10237.8	56.421	676.72
3	630960	7673.42	9479.73	12196.2	51.0114	678.761
4	501190	9752.31	10426.3	14276.4	46.9129	680.877
5	398110	12557.7	12364.4	17623.1	44.5555	689.312
6	316230	14984	13098.7	19902.2	41.1594	691.353
7	251190	16993.8	13345.8	21607.9	38.1437	699.843
8	199530	19414.2	13857.9	23852.8	35.5193	701.889
9	158490	21886.3	14148.1	26061.1	32.8801	703.99
10	125890	24289.5	14314.5	28193.7	30.512	705.936
11	100000	26711.5	14333.1	30314.1	28.2176	707.997
12	79433	29122.4	14216.4	32407.1	26.0198	709.939
13	63096	31510.3	13962.9	34465.3	23.8992	711.9
14	50119	33847.6	13579.7	36470.1	21.8607	714.011
15	39811	36125.4	13048.2	38409.6	19.8594	716.122
16	31623	38137.3	12393.3	40100.5	18.0023	718.138
17	25119	39967.8	11604.5	41618.4	16.1904	720.094
18	19953	41744.5	10856.9	43133.2	14.5784	722.1
19	15849	43269.7	10104.6	44433.9	13.1444	724.036
20	12589	44781.3	9250.62	45726.8	11.6716	726.047
21	10000	46026.3	8431.24	46792.1	10.3805	729.714
22	7943.3	47173.3	7695.91	47796.9	9.26567	731.67
23	6309.6	48164.8	6996.05	48670.3	8.26453	733.691
24	5011.9	49064.2	6345.27	49472.8	7.36893	735.627
25	3981.1	49848.5	5750.7	50179.1	6.58075	737.648
26	3162.3	50512.3	5213.3	50780.6	5.89255	739.624
27	2511.9	51127.9	4731.87	51346.4	5.28764	741.63
28	1995.3	51667.6	4302.65	51846.4	4.76035	743.631
29	1584.9	52174.5	3924.24	52321.9	4.30133	745.612
30	1258.9	52629.9	3604	52753.1	3.9174	747.593
31	1000	53044.4	3314.51	53147.8	3.57551	749.599
32	794.33	53410	3065.06	53497.9	3.28446	751.74
33	630.96	53783	2860.2	53859	3.04414	753.721
34	501.19	54114.7	2692.23	54181.6	2.84814	755.777
35	398.11	54427.5	2548.52	54487.1	2.68086	757.788
36	316.23	54714.1	2434.61	54768.3	2.5478	759.699
37	251.19	54980.9	2353.25	55031.2	2.45083	761.75
38	199.53	55276.3	2306.45	55324.4	2.38932	763.812
39	158.49	55560	2279.29	55606.8	2.34918	765.838
40	125.89	55804	2280.74	55850.6	2.34041	767.879
41	100	56067	2305.07	56114.4	2.35426	769.96
42	79.433	56337.3	2365.89	56387	2.40472	772.081
43	63.096	56602.7	2457.35	56656	2.48588	774.212
44	50.119	56927.3	2538.2	56983.9	2.55293	776.313
45	39.811	57199.3	2728.22	57264.4	2.73075	786.069
46	31.623	57523.8	2920.03	57597.9	2.90596	788.375
47	25.119	57828.2	3148.69	57913.9	3.11662	790.761
48	19.953	58208.5	3463.05	58311.4	3.40474	793.262
49	15.849	58572.1	3802.03	58695.3	3.71397	795.898
50	12.589	59013.7	4227.3	59164.9	4.09725	798.634
51	10	59497.2	4696.68	59682.3	4.51354	801.625
52	7.9433	60039.3	5264.77	60269.7	5.01137	804.676
53	6.3096	60616.5	5911.29	60904	5.56984	807.707
54	5.0119	61299.1	6651.06	61658.8	6.19247	810.958
55	3.9811	62047.1	7508.52	62499.7	6.9	814.049
56	3.1623	62874.6	8496.62	63446.1	7.6961	817.195
57	2.5119	63840.5	9600.26	64558.3	8.552	820.517
58	1.9953	64884	10879.5	65789.8	9.51861	823.918
59	1.5849	66089.6	12334.5	67230.8	10.5716	827.494
60	1.2589	67376.5	14040.5	68823.9	11.7714	831.115
61	1	68880.9	16004.9	70715.9	13.0809	837.587
62	0.79433	70584.2	18277	72912.1	14.5173	841.298
63	0.63096	72281.3	20876.3	75235.6	16.1098	845.414
64	0.50119	74468.4	24047.4	78254.8	17.8963	849.945
65	0.39811	76813.9	27646.8	81637.8	19.7948	854.836
66	0.31623	79591.5	32169	85846.7	22.0074	860.237
67	0.25119	82926.5	37118.2	90854.7	24.1134	866.433
68	0.19953	86327.6	43413.9	96629.2	26.6977	873.25
69	0.15849	90396.2	49832.3	103222	28.8665	881.341
70	0.12589	95466.1	58163.7	111789	31.3523	890.487
71	0.1	101939	67419.7	122217	33.4795	901.463

File: Z_p26_1.txt
Index	Frequency (Hz)	Z' (Ω)	-Z'' (Ω)	Z (Ω)	-Phase (°)	Time (s)
1	1000000	3740.38	8630.06	9405.77	66.5674	140.198
2	794330	6028.76	9024.02	10852.6	56.254	141.588
3	630960	8275.13	9957.12	12946.9	50.2708	142.963
4	501190	10703.1	10804.9	15208.6	45.2711	144.438
5	398110	13687.7	12903.5	18811	43.3107	149.509
6	316230	16344.1	13404.3	21137.8	39.3563	150.869
7	251190	18518.1	13282.2	22789	35.6502	155.744
8	199530	20943.7	13407.2	24867.5	32.6255	157.094
9	158490	23495.4	13404.3	27050.2	29.7051	158.544
10	125890	25848.7	13201.3	29024.6	27.054	159.869
11	100000	28109.9	12790.9	30883.2	24.4672	161.314
12	79433	30204.9	12320.9	32621.2	22.1911	162.639
13	63096	32242	11610	34268.6	19.8034	164.009
14	50119	34083.6	10855	35770.4	17.6657	165.399
15	39811	35720	10032.1	37102	15.6876	166.684
16	31623	37145.7	9019.88	38225.1	13.6487	167.969
17	25119	38308.3	8162.34	39168.2	12.0281	169.284
18	19953	39473.1	7425.02	40165.4	10.653	170.574
19	15849	40325.6	6586.15	40859.9	9.27589	171.854
20	12589	41191	5879.41	41608.5	8.12326	173.189
21	10000	41887.2	5191.56	42207.7	7.06529	175.384
22	7943.3	42516.3	4623.82	42767	6.20675	176.654
23	6309.6	43014.1	4106.62	43209.7	5.45359	177.944
24	5011.9	43479.7	3662	43633.7	4.81426	179.234
25	3981.1	43858.7	3265.13	43980.1	4.25762	180.589
26	3162.3	44201.6	2921.99	44298	3.7821	181.864
27	2511.9	44521.4	2628.68	44598.9	3.379	183.194
28	1995.3	44767.2	2377.09	44830.2	3.03949	184.474
29	1584.9	45034	2162.86	45085.9	2.74965	185.749
30	1258.9	45286.8	1973.05	45329.8	2.49468	187.139
31	1000	45489.5	1821.04	45525.9	2.29244	188.429
32	794.33	45697.6	1689.21	45728.8	2.11697	189.804
33	630.96	45883.2	1573.49	45910.2	1.96409	191.129
34	501.19	46064	1476.55	46087.6	1.83595	192.434
35	398.11	46257.5	1398.55	46278.6	1.73176	193.744
36	316.23	46426.1	1344.56	46445.6	1.6589	195.024
37	251.19	46591	1293	46609	1.58967	196.329
38	199.53	46737.3	1260.33	46754.3	1.54467	197.644
39	158.49	46878.6	1239.15	46895	1.51416	198.989
40	125.89	47015.6	1231.58	47031.7	1.50053	200.379
41	100	47169.9	1233.23	47186	1.49762	201.685
42	79.433	47311	1246.78	47327.4	1.50955	203.055
43	63.096	47452.4	1275.38	47469.5	1.53957	204.545
44	50.119	47591	1365.3	47610.6	1.64327	206.025
45	39.811	47769.7	1396.32	47790.1	1.6743	215.15
46	31.623	47916.8	1473.15	47939.4	1.76094	216.77
47	25.119	48096	1574.68	48121.7	1.87522	218.4
48	19.953	48279.1	1723.96	48309.9	2.04506	220.265
49	15.849	48459.2	1877.35	48495.5	2.21858	222.23
50	12.589	48677.4	2076.69	48721.7	2.44289	224.295
51	10	48899	2302.43	48953.2	2.6958	226.605
52	7.9433	49128.6	2562.01	49195.4	2.98522	228.865
53	6.3096	49438	2874.78	49521.5	3.32795	231.2
54	5.0119	49726.2	3237.89	49831.5	3.72553	233.57
55	3.9811	50082	3657.63	50215.4	4.17705	236.105
56	3.1623	50417.4	4148.18	50587.8	4.70352	238.825
57	2.5119	50823.2	4720.87	51042	5.30687	242.96
58	1.9953	51300.2	5399.44	51583.6	6.00837	246.015
59	1.5849	51809.8	6252.71	52185.7	6.88151	249.835
60	1.2589	52322.7	7137.13	52807.2	7.76755	253.715
61	1	52887.1	8303.41	53535	8.92274	259.026
62	0.79433	53627.9	9702.63	54498.5	10.2553	262.286
63	0.63096	54401.1	11232.4	55548.6	11.6662	265.851
64	0.50119	55252.8	13276	56825.4	13.5108	270.841
65	0.39811	56247.5	15783.9	58420.1	15.675	277.081
66	0.31623	57271.5	18564.7	60205.3	17.9602	282.856
67	0.25119	58690.2	22205	62750.3	20.7237	289.051
68	0.19953	60574.2	26065.8	65944.4	23.2828	295.436
69	0.15849	62435.5	31035.1	69723.5	26.4308	302.931
70	0.12589	64826.1	37193.6	74738.1	29.8448	311.812
71	0.1	68571.4	43960.3	81452.7	32.6634	322.117

File: Z_p26_2.txt
Index	Frequency (Hz)	Z' (Ω)	-Z'' (Ω)	Z (Ω)	-Phase (°)	Time (s)
1	1000000	3760.79	8831.97	9599.34	66.935	469.846
2	794330	6081.94	9074.88	10924.4	56.1702	471.296
3	630960	8261.61	9906.41	12899.3	50.173	472.821
4	501190	10697.6	10777.8	15185.5	45.214	474.401
5	398110	13751.1	12755.5	18756.2	42.849	485.237
6	316230	16267.8	13010.3	20830.5	38.6513	488.677
7	251190	18524.9	13294.9	22801.8	35.6662	495.922
8	199530	21028.1	13413.1	24941.8	32.5324	497.412
9	158490	23378.1	13446.5	26969.3	29.9064	499.592
10	125890	25815.3	13167.7	28979.6	27.025	502.277
11	100000	28037.6	12746.8	30799.1	24.4481	504.477
12	79433	30221	12206.3	32593	21.9939	506.767
13	63096	32150.1	11591.7	34175.9	19.8268	509.712
14	50119	34026.5	10811.5	35702.8	17.627	512.202
15	39811	35744.8	9932.67	37099.1	15.5294	513.617
16	31623	37081.4	8962.09	38149	13.5871	515.092
17	25119	38312.4	8114.88	39162.4	11.959	516.547
18	19953	39388.7	7341.11	40067	10.5574	517.972
19	15849	40271.2	6589.82	40806.9	9.29328	519.507
20	12589	41106.2	5842.65	41519.3	8.08959	520.992
21	10000	41848.6	5186.48	42168.8	7.06489	523.547
22	7943.3	42470.2	4614.97	42720.2	6.20163	524.847
23	6309.6	42953.6	4102.05	43149.1	5.45518	526.367
24	5011.9	43417.9	3655.74	43571.5	4.8129	527.887
25	3981.1	43820.7	3260.47	43941.8	4.25524	529.492
26	3162.3	44135.3	2918.62	44231.7	3.78341	531.092
27	2511.9	44473.6	2628.49	44551.2	3.38237	532.742
28	1995.3	44732.8	2376.82	44795.9	3.04148	534.467
29	1584.9	44985	2160.68	45036.8	2.74987	536.747
30	1258.9	45222.5	1977.45	45265.7	2.50378	538.218
31	1000	45456	1819.35	45492.4	2.292	539.823
32	794.33	45648.1	1684.31	45679.2	2.11313	541.428
33	630.96	45848.1	1572.44	45875.1	1.96428	542.928
34	501.19	46015	1477.15	46038.7	1.83865	544.633
35	398.11	46191.5	1403.97	46212.9	1.74094	548.103
36	316.23	46366.4	1338.46	46385.7	1.6535	551.098
37	251.19	46509.7	1291.55	46527.7	1.59066	553.873
38	199.53	46690.9	1257.93	46707.9	1.54327	557.068
39	158.49	46821.5	1240.69	46837.9	1.51788	560.673
40	125.89	46962.7	1227.97	46978.7	1.49781	565.683
41	100	47112.7	1236.54	47128.9	1.50347	567.078
42	79.433	47252.6	1252.66	47269.2	1.51854	568.453
43	63.096	47424.6	1289.52	47442.2	1.55755	569.963
44	50.119	47598.6	1304.6	47616.5	1.57	571.443
45	39.811	47697.2	1398.02	47717.6	1.67888	580.653
46	31.623	47888.6	1478.72	47911.4	1.76864	582.398
47	25.119	48040.3	1585.62	48066.4	1.89042	584.083
48	19.953	48224.7	1733.73	48255.8	2.05896	586.178
49	15.849	48416.5	1888.83	48453.3	2.23409	588.218
50	12.589	48635.5	2087.04	48680.2	2.45716	590.253
51	10	48850.7	2312.63	48905.4	2.71041	592.904
52	7.9433	49122.4	2582.72	49190.2	3.00968	595.354
53	6.3096	49379.2	2888.3	49463.6	3.34754	597.889
54	5.0119	49688.6	3259.76	49795.4	3.75344	600.264
55	3.9811	50032.5	3674.14	50167.3	4.19998	602.609
56	3.1623	50383	4189.42	50556.9	4.7533	605.074
57	2.5119	50813.3	4745.18	51034.4	5.33507	607.644
58	1.9953	51250.8	5454.86	51540.2	6.07539	610.299
59	1.5849	51765.5	6231.37	52139.2	6.86407	613.054
60	1.2589	52262.8	7173.05	52752.8	7.815	615.934
61	1	52911.2	8352.81	53566.5	8.97094	620.984
62	0.79433	53602.5	9754.93	54482.9	10.3142	624.224
63	0.63096	54355.3	11275.7	55512.5	11.7195	627.799
64	0.50119	55142.7	13323	56729.4	13.5829	631.749
65	0.39811	56274.1	15786.4	58446.4	15.6702	636.279
66	0.31623	57568.9	18750.8	60545.6	18.041	641.364
67	0.25119	58824.9	22448.5	62962.7	20.8876	646.765
68	0.19953	60448.5	26464	65987.6	23.6435	653.03
69	0.15849	62608.3	31611.2	70136	26.7894	660.305
70	0.12589	65615	37181.5	75417.4	29.5386	668.795
71	0.1	67616	43884.5	80608.8	32.9845	678.99

File: Z_p26_3.txt
Index	Frequency (Hz)	Z' (Ω)	-Z'' (Ω)	Z (Ω)	-Phase (°)	Time (s)
1	1000000	3689.81	8784.04	9527.54	67.2148	826.598
2	794330	6093.02	9070.79	10927.2	56.11	828.684
3	630960	8247.7	10031.4	12986.7	50.5733	830.775
4	501190	10602.2	10921.1	15220.9	45.849	832.981
5	398110	13778.4	12786.8	18797.5	42.8625	841.581
6	316230	16187.4	13202.6	20888.7	39.201	843.607
7	251190	18480.4	13283.2	22758.9	35.7076	852.017
8	199530	21032.8	13419.2	24949	32.5383	853.988
9	158490	23458.8	13439.9	27036	29.8091	856.109
10	125890	25812.2	13135.9	28962.4	26.9716	858.045
11	100000	28037.7	12721.7	30788.8	24.4054	860.141
12	79433	30136.7	12229.4	32523.6	22.0872	862.107
13	63096	32169.2	11587.2	34192.4	19.8088	864.203
14	50119	34029.1	10854	35718.2	17.6908	866.339
15	39811	35760.5	9853.72	37093.3	15.4054	868.43
16	31623	37091.6	8984.72	38164.2	13.6165	870.476
17	25119	38250.9	8112.08	39101.6	11.9736	872.568
18	19953	39374.7	7381.65	40060.6	10.6181	874.624
19	15849	40341	6600.85	40877.5	9.29276	876.775
20	12589	41127.2	5838.56	41539.5	8.07992	878.746
21	10000	41823.1	5181.63	42142.9	7.06261	882.518
22	7943.3	42407.3	4606.64	42656.7	6.19965	884.454
23	6309.6	42937.5	4097.87	43132.7	5.45168	886.48
24	5011.9	43383.4	3646.09	43536.4	4.80405	888.556
25	3981.1	43776.1	3258.03	43897.1	4.25638	890.507
26	3162.3	44109	2915.67	44205.3	3.78184	892.548
27	2511.9	44416.1	2620.57	44493.3	3.37656	894.634
28	1995.3	44711.4	2365.57	44773.9	3.02855	896.8
29	1584.9	44976.1	2159.02	45027.9	2.7483	898.731
30	1258.9	45196.8	1979.79	45240.2	2.50817	900.737
31	1000	45391.5	1817.85	45427.9	2.29337	902.758
32	794.33	45609.9	1684.88	45641	2.1156	904.919
33	630.96	45796.6	1569.61	45823.5	1.96296	906.91
34	501.19	45994.9	1481.33	46018.7	1.84466	908.936
35	398.11	46163.3	1399.66	46184.5	1.73666	910.982
36	316.23	46336	1339.65	46355.4	1.65605	912.978
37	251.19	46508.4	1293.92	46526.4	1.59362	915.054
38	199.53	46653.6	1259.38	46670.6	1.54628	917.11
39	158.49	46804.4	1240.42	46820.8	1.51811	919.176
40	125.89	46960.5	1231.37	46976.6	1.50203	921.262
41	100	47083.9	1232.31	47100	1.49924	923.423
42	79.433	47257.1	1257.2	47273.8	1.52391	925.645
43	63.096	47382.5	1292.02	47400.1	1.56194	927.836
44	50.119	47573.3	1279.08	47590.4	1.54011	929.997
45	39.811	47714.6	1395.05	47735	1.6747	940.018
46	31.623	47859.4	1483.32	47882.4	1.77521	942.314
47	25.119	48047.6	1586.6	48073.8	1.8913	944.595
48	19.953	48202.9	1729.33	48233.9	2.05466	947.311
49	15.849	48392.8	1898.41	48430	2.24651	949.932
50	12.589	48612.3	2096.16	48657.5	2.46906	952.668
51	10	48854.2	2316.53	48909.1	2.71477	955.679
52	7.9433	49099.1	2583.52	49167	3.01204	958.705
53	6.3096	49384.9	2889.49	49469.3	3.34854	961.706
54	5.0119	49685.6	3244.79	49791.4	3.73648	964.762
55	3.9811	50018.3	3668.82	50152.7	4.19511	967.953
56	3.1623	50417.1	4181.07	50590.1	4.74068	971.154
57	2.5119	50796	4743.86	51017	5.33541	974.42
58	1.9953	51255.2	5405.3	51539.4	6.02008	977.706
59	1.5849	51743.3	6217.66	52115.6	6.85201	981.253
60	1.2589	52267.4	7166.56	52756.5	7.80733	984.869
61	1	52911.3	8349.96	53566.1	8.96792	991.766
62	0.79433	53592.2	9688.33	54460.9	10.2472	995.642
63	0.63096	54378.8	11364.8	55553.7	11.8046	999.873
64	0.50119	55099	13291.7	56679.5	13.5625	1004.35
65	0.39811	56101.2	15870.9	58302.9	15.7961	1009.22
66	0.31623	57322.3	18633	60274.6	18.0071	1014.69
67	0.25119	58663	22259.4	62744.2	20.779	1020.85
68	0.19953	60930.6	26370.5	66392.3	23.4028	1027.75
69	0.15849	63017.6	31546	70472.5	26.5921	1035.73
70	0.12589	65598.5	37301.5	75462.3	29.624	1045.06
71	0.1	68152.2	43623.8	80918.2	32.623	1055.9