Folder: Streamlit_cement_impedance/data/20200619 (part 14)

File: Z_p48_1.txt
Index	Frequency (Hz)	Z' (Ω)	-Z'' (Ω)	Z (Ω)	-Phase (°)	Time (s)
1	1000000	1858.95	1167	2194.91	32.1196	67.94
2	794330	2024.5	1110.66	2309.15	28.7495	69.4351
3	630960	2219.7	1065.82	2462.32	25.6486	70.9051
4	501190	2413.36	1005.46	2614.43	22.6176	72.4951
5	398110	2592.25	922.042	2751.35	19.58	76.8102
6	316230	2756.37	852.207	2885.1	17.1805	78.1602
7	251190	2845.31	742.499	2940.6	14.6255	82.3153
8	199530	2972.85	677.034	3048.97	12.8297	83.6803
9	158490	3077.8	608.718	3137.41	11.1874	85.0803
10	125890	3166.01	542.544	3212.16	9.72405	86.3954
11	100000	3235.37	478.945	3270.63	8.42057	87.7904
12	79433	3293.64	421.802	3320.53	7.2979	89.1254
13	63096	3340.81	371.142	3361.36	6.3392	90.5204
14	50119	3380.99	326.644	3396.74	5.51833	91.9455
15	39811	3413.93	286.974	3425.97	4.80498	93.2555
16	31623	3442.57	254.157	3451.94	4.22236	94.5755
17	25119	3466.98	226.964	3474.4	3.7455	96.0005
18	19953	3488.96	204.113	3494.92	3.34813	97.3806
19	15849	3507.65	185.799	3512.56	3.0321	98.7206
20	12589	3529.31	169.94	3533.4	2.75672	100.061
21	10000	3543.76	157.454	3547.25	2.54405	101.461
22	7943.3	3563.68	147.767	3566.74	2.3744	102.846
23	6309.6	3579.8	140.201	3582.55	2.24281	104.226
24	5011.9	3595.13	134.158	3597.63	2.13709	105.596
25	3981.1	3609.85	129.681	3612.18	2.05743	106.976
26	3162.3	3626.07	126.784	3628.28	2.00251	108.371
27	2511.9	3641.09	124.932	3643.23	1.96514	109.831
28	1995.3	3657.63	124.513	3659.75	1.94971	111.256
29	1584.9	3672.31	124.516	3674.42	1.94196	112.541
30	1258.9	3687.59	125.317	3689.72	1.94637	113.806
31	1000	3704.18	127.87	3706.39	1.97709	115.196
32	794.33	3720.29	130.371	3722.57	2.00701	116.646
33	630.96	3736.29	133.849	3738.69	2.0517	117.951
34	501.19	3755.38	138.267	3757.92	2.10858	119.336
35	398.11	3772.59	143.999	3775.34	2.18591	120.691
36	316.23	3791.67	151.214	3794.68	2.28378	122.086
37	251.19	3810.74	160.013	3814.1	2.40443	123.521
38	199.53	3830.63	170.569	3834.42	2.54957	124.866
39	158.49	3852.15	183.39	3856.51	2.72564	126.121
40	125.89	3873.46	198.589	3878.54	2.93494	127.551
41	100	3898.45	216.957	3904.48	3.18535	128.901
42	79.433	3924.32	236.455	3931.44	3.44812	130.336
43	63.096	3952.19	260.631	3960.77	3.77296	131.866
44	50.119	3981.72	283.897	3991.83	4.0783	133.321
45	39.811	4018.87	318.995	4031.51	4.53829	142.476
46	31.623	4057.96	353.967	4073.36	4.98517	144.166
47	25.119	4102.74	394.534	4121.67	5.49288	145.771
48	19.953	4154.14	440.879	4177.47	6.05813	147.627
49	15.849	4211.23	489.263	4239.56	6.62694	149.667
50	12.589	4275.15	544.034	4309.63	7.2522	151.757
51	10	4344.25	601.131	4385.65	7.87821	154.447
52	7.9433	4423.43	665.661	4473.23	8.55796	156.862
53	6.3096	4510.55	735.13	4570.06	9.25669	159.357
54	5.0119	4599.53	813.574	4670.93	10.0308	161.787
55	3.9811	4697.33	897.389	4782.28	10.8156	164.312
56	3.1623	4811.34	993.547	4912.86	11.6676	166.932
57	2.5119	4917.89	1103.76	5040.23	12.6497	169.517
58	1.9953	5035.58	1237.66	5185.45	13.8086	172.217
59	1.5849	5166.33	1382.54	5348.12	14.9817	175.082
60	1.2589	5293.26	1538.26	5512.24	16.2042	178.037
61	1	5443.76	1759.72	5721.11	17.9136	183.227
62	0.79433	5609.31	2012.03	5959.24	19.7327	186.532
63	0.63096	5771.61	2297.02	6211.9	21.7019	190.092
64	0.50119	5943.95	2661.88	6512.77	24.1243	194.062
65	0.39811	6162.43	3096.66	6896.73	26.6798	198.442
66	0.31623	6376.77	3636.07	7340.58	29.6921	203.348
67	0.25119	6678.66	4314.11	7950.85	32.8606	208.823
68	0.19953	6970.75	5116.8	8647.14	36.2801	215.148
69	0.15849	7348.82	6049.49	9518.48	39.4609	222.453
70	0.12589	7740.33	7117.13	10515	42.5981	231.048
71	0.1	8137.19	8586.49	11829.7	46.5389	241.233

File: Z_p48_2.txt
Index	Frequency (Hz)	Z' (Ω)	-Z'' (Ω)	Z (Ω)	-Phase (°)	Time (s)
1	1000000	1859.69	1170.69	2197.49	32.1906	387.087
2	794330	2027.47	1108.56	2310.74	28.6684	388.532
3	630960	2219.62	1063.77	2461.36	25.6064	390.042
4	501190	2414.4	1009.35	2616.89	22.6876	391.682
5	398110	2589.34	921.982	2748.58	19.5992	395.982
6	316230	2754.33	852.13	2883.14	17.1909	397.367
7	251190	2841.63	740.55	2936.54	14.6068	401.652
8	199530	2970	675.662	3045.88	12.8164	403.102
9	158490	3077.04	607.716	3136.48	11.1722	404.407
10	125890	3161.47	540.9	3207.41	9.7088	405.772
11	100000	3231.2	477.977	3266.36	8.41449	407.252
12	79433	3289.99	421.453	3316.87	7.29994	408.647
13	63096	3338.86	370.477	3359.35	6.3316	410.132
14	50119	3377.07	326.05	3392.77	5.51472	411.557
15	39811	3410.52	287.452	3422.61	4.81773	412.942
16	31623	3439.88	253.34	3449.2	4.21211	414.397
17	25119	3464.47	226.52	3471.87	3.74088	415.852
18	19953	3486.86	203.948	3492.82	3.34744	417.282
19	15849	3507.16	184.81	3512.02	3.01641	418.642
20	12589	3525.76	169.463	3529.83	2.75176	419.947
21	10000	3543.35	157.648	3546.86	2.54747	421.282
22	7943.3	3561.97	147.378	3565.02	2.36929	422.702
23	6309.6	3577.01	139.681	3579.73	2.23624	424.052
24	5011.9	3594.12	134.313	3596.63	2.14016	425.467
25	3981.1	3609.36	129.766	3611.69	2.05905	426.852
26	3162.3	3622.78	126.721	3624.99	2.00334	428.228
27	2511.9	3639.8	125.069	3641.95	1.968	429.688
28	1995.3	3653.06	124.737	3655.19	1.95566	431.148
29	1584.9	3669.69	124.417	3671.8	1.94181	432.463
30	1258.9	3686.42	125.886	3688.57	1.95581	433.763
31	1000	3701.44	127.346	3703.63	1.97045	435.158
32	794.33	3717.57	130.195	3719.84	2.00576	436.508
33	630.96	3733.35	133.728	3735.74	2.05145	437.863
34	501.19	3753.04	138.287	3755.59	2.1102	439.328
35	398.11	3770.54	144.163	3773.29	2.18958	440.653
36	316.23	3788.83	151.083	3791.84	2.2835	442.548
37	251.19	3809.69	160.164	3813.06	2.40737	443.878
38	199.53	3827.46	171.001	3831.28	2.55812	445.198
39	158.49	3850.62	183.145	3854.97	2.72308	446.653
40	125.89	3872.5	198.456	3877.58	2.9337	448.158
41	100	3898.11	216.383	3904.11	3.17722	449.573
42	79.433	3922.19	236.396	3929.31	3.44912	450.968
43	63.096	3948.12	260.355	3956.7	3.77285	452.483
44	50.119	3981.24	283.85	3991.35	4.0781	453.983
45	39.811	4018.02	319	4030.66	4.53932	463.253
46	31.623	4058.48	354.78	4073.95	4.99593	465.058
47	25.119	4104.16	395.475	4123.17	5.50401	466.818
48	19.953	4151.7	441.071	4175.06	6.06428	468.733
49	15.849	4210.49	489.64	4238.87	6.63315	470.728
50	12.589	4272.82	542.96	4307.18	7.24193	472.773
51	10	4345.7	603.025	4387.34	7.90012	475.088
52	7.9433	4422.18	666.881	4472.18	8.5758	477.433
53	6.3096	4508.07	737.443	4567.99	9.29032	479.933
54	5.0119	4599.09	812.664	4670.33	10.0208	482.374
55	3.9811	4697.08	897.93	4782.14	10.8225	484.954
56	3.1623	4800.83	986.187	4901.07	11.6082	487.494
57	2.5119	4912.53	1101.93	5034.6	12.6427	490.224
58	1.9953	5034.39	1220.38	5180.19	13.6261	493.174
59	1.5849	5158.88	1383.47	5341.16	15.012	496.124
60	1.2589	5290.01	1561.32	5515.61	16.4437	499.154
61	1	5441.59	1761.11	5719.47	17.9336	504.534
62	0.79433	5607.87	2006.25	5955.94	19.685	507.724
63	0.63096	5775.79	2310.96	6220.96	21.8069	511.274
64	0.50119	5947.32	2675.07	6521.25	24.218	515.424
65	0.39811	6144.98	3101.18	6883.17	26.7787	519.799
66	0.31623	6386.69	3633.72	7348.04	29.6378	526.319
67	0.25119	6649.44	4316.57	7927.66	32.9901	532.149
68	0.19953	6944.71	5072.66	8600.05	36.1457	540.91
69	0.15849	7276.13	6030.5	9450.34	39.6522	548.36
70	0.12589	7712.19	7218.06	10563.1	43.1044	557.265
71	0.1	8259.44	8522.07	11867.8	45.8966	567.76

File: Z_p48_3.txt
Index	Frequency (Hz)	Z' (Ω)	-Z'' (Ω)	Z (Ω)	-Phase (°)	Time (s)
1	1000000	1859.74	1180.6	2202.83	32.4084	718.389
2	794330	2024.77	1109.07	2308.62	28.7119	720.985
3	630960	2220.08	1062.86	2461.38	25.5826	723.696
4	501190	2411.75	1005.99	2613.15	22.642	726.552
5	398110	2590.76	923.241	2750.35	19.614	738.006
6	316230	2748.52	849.869	2876.92	17.1821	741.342
7	251190	2842.09	740.472	2936.97	14.6031	750.856
8	199530	2971.96	676.834	3048.05	12.8297	753.592
9	158490	3078.8	608.076	3138.27	11.1724	756.428
10	125890	3161.69	540.821	3207.61	9.70675	760.184
11	100000	3233.42	478.404	3268.62	8.41618	762.891
12	79433	3290.15	421.847	3317.09	7.30631	765.757
13	63096	3339.99	370.842	3360.52	6.33565	768.733
14	50119	3378.19	325.995	3393.88	5.51198	771.844
15	39811	3412.94	286.598	3424.96	4.80009	775.07
16	31623	3441.21	253.642	3450.54	4.21549	778.216
17	25119	3465.05	226.604	3472.45	3.74166	781.457
18	19953	3488.71	204.347	3494.68	3.3522	784.513
19	15849	3507.79	185.728	3512.7	3.03082	787.914
20	12589	3529.48	170.211	3533.58	2.76098	790.935
21	10000	3544.56	157.537	3548.06	2.54482	794.226
22	7943.3	3562.9	147.713	3565.96	2.37405	797.327
23	6309.6	3578.92	139.445	3581.63	2.23128	800.418
24	5011.9	3595.04	134.195	3597.54	2.13774	803.629
25	3981.1	3609.67	130.009	3612.01	2.06272	806.855
26	3162.3	3624.33	126.954	3626.55	2.00615	809.761
27	2511.9	3637.79	125.12	3639.94	1.96988	812.847
28	1995.3	3655.98	124.316	3658.09	1.94751	815.614
29	1584.9	3670.84	124.515	3672.95	1.94272	818.365
30	1258.9	3686.43	125.567	3688.57	1.95086	821.376
31	1000	3702.6	127.668	3704.8	1.97481	824.287
32	794.33	3720.04	130.13	3722.31	2.00343	827.568
33	630.96	3736.68	133.896	3739.07	2.0522	830.634
34	501.19	3754.09	138.574	3756.65	2.11399	834.065
35	398.11	3773.22	144.241	3775.98	2.18921	837.816
36	316.23	3792.2	151.697	3795.23	2.29075	840.222
37	251.19	3809.67	160.419	3813.04	2.41121	842.763
38	199.53	3830.94	171.13	3834.76	2.55774	845.009
39	158.49	3852.37	183.729	3856.75	2.73052	847.205
40	125.89	3874.75	198.736	3879.84	2.93612	849.486
41	100	3898.43	216.802	3904.46	3.18309	851.817
42	79.433	3924.96	236.891	3932.1	3.4539	854.193
43	63.096	3951.9	260.962	3960.51	3.77801	856.574
44	50.119	3991.1	290.153	4001.63	4.15809	858.92
45	39.811	4019.38	320.049	4032.1	4.55265	868.896
46	31.623	4058.13	356.059	4073.72	5.01427	871.473
47	25.119	4105.9	396.39	4124.99	5.51434	873.944
48	19.953	4154.92	441.646	4178.33	6.06746	876.71
49	15.849	4210.91	493.542	4239.74	6.68489	879.461
50	12.589	4273.99	545.216	4308.63	7.26973	882.387
51	10	4345.25	604.346	4387.08	7.91802	885.653
52	7.9433	4425.8	669.338	4476.13	8.59997	888.899
53	6.3096	4510.84	738.94	4570.97	9.30323	892.25
54	5.0119	4602.62	815.23	4674.26	10.0442	895.701
55	3.9811	4701.53	900.695	4787.03	10.845	899.132
56	3.1623	4811.7	999.904	4914.5	11.7394	902.613
57	2.5119	4926.74	1110.94	5050.44	12.7072	906.119
58	1.9953	5052.91	1233.86	5201.38	13.7224	909.745
59	1.5849	5178.99	1388.72	5361.94	15.0105	913.531
60	1.2589	5304.86	1571.85	5532.84	16.5048	917.442
61	1	5446.64	1765.16	5725.52	17.9566	924.63
62	0.79433	5611.57	2017.63	5963.27	19.776	928.836
63	0.63096	5778.56	2307.22	6222.13	21.7655	933.387
64	0.50119	5955.85	2664.33	6524.63	24.1012	938.258
65	0.39811	6162.84	3107.92	6902.16	26.7618	943.394
66	0.31623	6415.82	3668.51	7390.59	29.7605	949.02
67	0.25119	6662.9	4310	7935.38	32.8975	956.026
68	0.19953	7014.05	5088.14	8665.22	35.9579	963.212
69	0.15849	7346.5	6082.67	9537.82	39.6237	971.428
70	0.12589	7751.76	7227.45	10598.4	42.9953	980.93
71	0.1	8272.22	8561.35	11904.9	45.984	992.056

File: Z_p49_1.txt
Index	Frequency (Hz)	Z' (Ω)	-Z'' (Ω)	Z (Ω)	-Phase (°)	Time (s)
1	1000000	1878.92	1194.73	2226.6	32.4507	24.2753
2	794330	2052.18	1138.68	2346.92	29.0243	25.6703
3	630960	2258.86	1091.6	2508.79	25.7923	27.1853
4	501190	2454.2	1036.92	2664.27	22.9046	28.6103
5	398110	2635.99	960.42	2805.5	20.0192	33.0104
6	316230	2804.66	895.66	2944.21	17.7107	34.3804
7	251190	2900.62	786.925	3005.46	15.1788	38.4605
8	199530	3036.37	726.481	3122.07	13.4556	39.7955
9	158490	3151.54	662	3220.32	11.8629	41.1306
10	125890	3246.36	597.18	3300.83	10.4232	42.4756
11	100000	3325.55	537.193	3368.65	9.17603	43.9256
12	79433	3392.73	481.993	3426.8	8.08571	45.2456
13	63096	3451.2	432.377	3478.18	7.14099	46.6807
14	50119	3501.02	388.757	3522.53	6.33623	47.9907
15	39811	3543.66	350.849	3560.98	5.65429	49.3507
16	31623	3580.39	318.835	3594.56	5.08879	50.6757
17	25119	3612.76	292.906	3624.62	4.63515	52.1208
18	19953	3646.56	271.434	3656.64	4.257	53.4258
19	15849	3676.05	254.345	3684.83	3.95798	54.7208
20	12589	3702.38	241.37	3710.24	3.73002	56.1408
21	10000	3731.1	232.091	3738.31	3.55947	57.4709
22	7943.3	3756.81	225.632	3763.58	3.43703	58.8659
23	6309.6	3784.33	221.48	3790.81	3.34945	60.2909
24	5011.9	3810.65	219.939	3816.99	3.30327	61.7359
25	3981.1	3838.51	220.363	3844.83	3.28566	63.156
26	3162.3	3866.74	222.813	3873.15	3.29791	64.491
27	2511.9	3894.46	227.189	3901.09	3.33865	65.906
28	1995.3	3924.91	232.477	3931.79	3.38973	67.2261
29	1584.9	3953.96	239.35	3961.2	3.46413	68.5411
30	1258.9	3985.65	247.457	3993.33	3.55277	69.8961
31	1000	4020.51	257.531	4028.75	3.66504	71.3761
32	794.33	4054.25	268.547	4063.14	3.78964	72.6962
33	630.96	4090.66	281.164	4100.31	3.93194	74.0012
34	501.19	4130.06	295.553	4140.62	4.0932	75.3962
35	398.11	4169.72	311.267	4181.32	4.26918	76.6362
36	316.23	4214.05	329.212	4226.89	4.46701	77.9312
37	251.19	4259.42	349.178	4273.71	4.68651	79.3763
38	199.53	4306	371.556	4322.01	4.93171	80.7013
39	158.49	4356.79	396.302	4374.78	5.19743	82.7513
40	125.89	4413.46	423.818	4433.76	5.48521	84.1564
41	100	4473.16	453.537	4496.1	5.78947	85.6814
42	79.433	4535.79	485.727	4561.72	6.11237	87.0964
43	63.096	4605.54	521.354	4634.96	6.45847	88.6664
44	50.119	4689.71	550.635	4721.92	6.69664	90.1165
45	39.811	4756.64	593.728	4793.56	7.11491	99.3216
46	31.623	4844.15	632.355	4885.25	7.43732	100.932
47	25.119	4933.9	673.121	4979.61	7.76877	102.572
48	19.953	5033.03	718.039	5083.99	8.11933	104.487
49	15.849	5133.03	761.104	5189.15	8.43412	106.432
50	12.589	5240.07	809.654	5302.25	8.78344	108.452
51	10	5350.21	860.704	5419	9.13904	110.782
52	7.9433	5467.49	914.376	5543.42	9.49421	113.217
53	6.3096	5586.19	975.521	5670.72	9.90573	115.547
54	5.0119	5709.77	1042.91	5804.24	10.3512	118.057
55	3.9811	5841.7	1122.73	5948.61	10.8791	120.542
56	3.1623	5979.91	1219.81	6103.05	11.5292	123.022
57	2.5119	6118.43	1328.73	6261.05	12.2526	125.537
58	1.9953	6289.42	1459.53	6456.55	13.0649	128.177
59	1.5849	6438.96	1560.04	6625.25	13.6192	130.877
60	1.2589	6570.67	1750.22	6799.78	14.9155	133.957
61	1	6812.31	1974.02	7092.56	16.1601	139.197
62	0.79433	7035.41	2209.12	7374.09	17.4323	142.427
63	0.63096	7281.66	2485.48	7694.17	18.8465	145.963
64	0.50119	7540.73	2805.32	8045.65	20.4064	149.808
65	0.39811	7857.16	3192.15	8480.85	22.1106	154.093
66	0.31623	8187.27	3628.83	8955.43	23.9043	158.893
67	0.25119	8628.15	4164.34	9580.54	25.7641	164.323
68	0.19953	9094.43	4751.26	10260.8	27.5842	170.528
69	0.15849	9651.36	5410.63	11064.5	29.2754	177.988
70	0.12589	10239.2	6113.33	11925.3	30.8394	186.698
71	0.1	10896.6	7064.93	12986.5	32.9577	197.038

File: Z_p49_2.txt
Index	Frequency (Hz)	Z' (Ω)	-Z'' (Ω)	Z (Ω)	-Phase (°)	Time (s)
1	1000000	1880.92	1204.62	2233.6	32.6371	228.198
2	794330	2055.57	1136.53	2348.84	28.9382	229.658
3	630960	2256.55	1091.69	2506.75	25.817	231.123
4	501190	2452.2	1030.44	2659.9	22.7927	232.668
5	398110	2631.6	959.286	2800.99	20.0281	236.923
6	316230	2799.28	895.476	2939.02	17.7392	238.258
7	251190	2896.74	784.644	3001.13	15.1561	242.328
8	199530	3033.59	725.541	3119.14	13.4507	243.693
9	158490	3146.2	660.801	3214.84	11.8615	245.038
10	125890	3242.76	596.875	3297.24	10.4294	246.328
11	100000	3322.63	536.17	3365.62	9.16674	247.778
12	79433	3389.91	481.038	3423.87	8.07652	249.088
13	63096	3447.32	431.483	3474.22	7.13432	250.508
14	50119	3496.45	388.18	3517.93	6.3351	251.838
15	39811	3537.93	350.163	3555.22	5.65238	253.238
16	31623	3576.41	318.528	3590.57	5.08955	254.593
17	25119	3610.24	291.95	3622.02	4.62329	255.938
18	19953	3640.25	270.903	3650.31	4.25604	257.253
19	15849	3671.42	254.057	3680.2	3.95848	258.578
20	12589	3698.91	241.079	3706.76	3.72902	259.903
21	10000	3726.52	231.646	3733.71	3.55702	261.253
22	7943.3	3753.64	224.737	3760.36	3.4263	262.598
23	6309.6	3780.59	221.267	3787.06	3.34954	263.894
24	5011.9	3808.53	219.664	3814.86	3.30098	265.239
25	3981.1	3833.63	220.326	3839.96	3.28928	266.604
26	3162.3	3860.67	222.473	3867.07	3.29805	267.994
27	2511.9	3890.77	226.912	3897.38	3.33775	269.344
28	1995.3	3921.88	232.546	3928.76	3.39336	270.754
29	1584.9	3952.88	239.581	3960.13	3.46841	272.059
30	1258.9	3983.59	247.578	3991.27	3.55632	273.359
31	1000	4016.73	257.216	4024.96	3.66399	274.674
32	794.33	4050.93	268.235	4059.8	3.78835	276.029
33	630.96	4088.58	280.862	4098.22	3.92972	277.309
34	501.19	4125.56	294.702	4136.08	4.08587	278.639
35	398.11	4167.05	311.037	4178.64	4.26876	280.854
36	316.23	4208.95	328.832	4221.78	4.46726	282.229
37	251.19	4255.65	349.309	4269.96	4.6924	283.614
38	199.53	4304.24	371.636	4320.25	4.93479	284.869
39	158.49	4355.57	396.762	4373.61	5.20488	286.224
40	125.89	4412.01	423.951	4432.33	5.48871	287.674
41	100	4469.88	453.874	4492.86	5.79798	289.039
42	79.433	4532.61	486.107	4558.6	6.12138	290.429
43	63.096	4601.83	519.138	4631.02	6.43639	291.924
44	50.119	4678.67	551.206	4711.03	6.71919	293.319
45	39.811	4755.57	592.633	4792.35	7.10351	302.709
46	31.623	4841.63	633.287	4882.88	7.452	304.499
47	25.119	4931.06	672.833	4976.75	7.76991	306.129
48	19.953	5028.28	717.318	5079.19	8.11885	308.044
49	15.849	5130.78	761.047	5186.91	8.43715	310.114
50	12.589	5234.97	806.342	5296.7	8.75645	312.104
51	10	5346.65	858.705	5415.17	9.12414	314.494
52	7.9433	5464.42	912.752	5540.12	9.48288	316.789
53	6.3096	5583.92	972.518	5667.98	9.87976	319.17
54	5.0119	5709.53	1043.06	5804.03	10.353	321.65
55	3.9811	5839.4	1122.03	5946.22	10.8767	324.075
56	3.1623	5973.5	1211.36	6095.09	11.4635	326.63
57	2.5119	6127.71	1314.83	6267.18	12.1104	329.155
58	1.9953	6261.31	1457.36	6428.68	13.1027	331.835
59	1.5849	6439.6	1583.59	6631.46	13.8157	334.675
60	1.2589	6641.45	1743.95	6866.61	14.7129	337.655
61	1	6809.33	1971.06	7088.86	16.1439	342.645
62	0.79433	7035.72	2206.1	7373.48	17.4092	345.775
63	0.63096	7274.99	2493.48	7690.44	18.919	349.27
64	0.50119	7547.14	2810.24	8053.37	20.4232	353.15
65	0.39811	7848.28	3205.86	8477.79	22.219	357.425
66	0.31623	8202.28	3626.91	8968.39	23.8542	362.15
67	0.25119	8598.82	4177.1	9559.7	25.9093	367.655
68	0.19953	9059.9	4762.06	10235.2	27.7273	373.861
69	0.15849	9627.74	5433.49	11055.1	29.4385	381.036
70	0.12589	10257.7	6116.38	11942.8	30.8065	389.556
71	0.1	10890.4	7051.33	12973.9	32.9223	399.721

File: Z_p49_3.txt
Index	Frequency (Hz)	Z' (Ω)	-Z'' (Ω)	Z (Ω)	-Phase (°)	Time (s)
1	1000000	1887.64	1205.49	2239.72	32.5632	433.859
2	794330	2056.15	1135.56	2348.88	28.9108	436.136
3	630960	2257.12	1092.35	2507.55	25.8251	438.307
4	501190	2453.28	1031.67	2661.38	22.808	440.558
5	398110	2632.88	959.776	2802.36	20.0286	447.582
6	316230	2802.7	893.433	2941.66	17.681	449.628
7	251190	2897.99	785.302	3002.51	15.162	456.797
8	199530	3036.53	724.587	3121.78	13.4212	458.913
9	158490	3147.89	660.656	3216.47	11.8528	461.199
10	125890	3243	596.656	3297.43	10.4248	463.295
11	100000	3323.01	536.187	3365.99	9.16601	465.556
12	79433	3390.39	481.197	3424.37	8.07802	467.682
13	63096	3446.86	431.825	3473.8	7.14086	470.063
14	50119	3498.06	388.742	3519.59	6.34131	472.294
15	39811	3539.59	350.732	3556.92	5.65888	474.39
16	31623	3577.08	318.665	3591.24	5.09077	476.496
17	25119	3610.6	292.196	3622.41	4.62671	478.572
18	19953	3642.34	271.271	3652.43	4.25936	480.678
19	15849	3672.41	253.938	3681.18	3.95555	482.804
20	12589	3701.08	240.996	3708.92	3.72556	484.935
21	10000	3726.82	231.625	3734.01	3.55641	486.996
22	7943.3	3755.81	225.174	3762.56	3.43098	489.072
23	6309.6	3783	221.843	3789.5	3.3561	491.214
24	5011.9	3809.42	219.86	3815.76	3.30315	493.32
25	3981.1	3836.27	220.528	3842.6	3.29003	495.446
26	3162.3	3864.76	223.287	3871.2	3.30659	497.567
27	2511.9	3892.47	227.239	3899.1	3.34109	499.808
28	1995.3	3923.17	233.042	3930.09	3.39946	501.899
29	1584.9	3953.12	239.959	3960.4	3.47366	503.91
30	1258.9	3986.28	248.209	3994	3.56297	506.091
31	1000	4018.06	257.922	4026.33	3.67281	508.187
32	794.33	4053.13	268.784	4062.03	3.79402	510.478
33	630.96	4089.86	281.442	4099.53	3.93658	512.589
34	501.19	4128.1	295.889	4138.69	4.09976	514.66
35	398.11	4169.29	312.134	4180.96	4.28147	516.741
36	316.23	4213.07	329.826	4225.96	4.47635	518.857
37	251.19	4257.89	350.154	4272.26	4.70123	520.958
38	199.53	4306.47	373.022	4322.6	4.95053	523.119
39	158.49	4356.52	397.567	4374.63	5.21425	525.295
40	125.89	4412.39	425.197	4432.83	5.50428	527.481
41	100	4472.43	455.033	4495.51	5.80939	529.677
42	79.433	4536.71	486.989	4562.77	6.1269	531.858
43	63.096	4605.12	521.433	4634.55	6.46003	534.104
44	50.119	4677.62	556.029	4710.55	6.77895	536.205
45	39.811	4760.15	594.442	4797.13	7.11818	546.102
46	31.623	4848.05	634.711	4889.43	7.45879	548.548
47	25.119	4938.05	674.485	4983.9	7.77786	551.019
48	19.953	5034.21	718.269	5085.19	8.12001	553.69
49	15.849	5134.39	760.644	5190.43	8.42689	556.441
50	12.589	5240.09	810.403	5302.39	8.79139	559.202
51	10	5353.36	861.552	5422.24	9.1426	562.318
52	7.9433	5470.56	915.449	5546.62	9.49992	565.554
53	6.3096	5594.33	973.912	5678.47	9.87559	568.795
54	5.0119	5715.66	1044.3	5810.28	10.3543	571.901
55	3.9811	5843.45	1123.25	5950.43	10.8809	575.122
56	3.1623	5980.35	1205.8	6100.7	11.3996	579.453
57	2.5119	6130.25	1327.78	6272.4	12.2211	583.144
58	1.9953	6269.56	1457.83	6436.82	13.0901	586.815
59	1.5849	6451.3	1601.94	6647.22	13.9452	590.511
60	1.2589	6605.08	1783.75	6841.7	15.1126	594.217
61	1	6818.75	1975.48	7099.15	16.157	600.965
62	0.79433	7040.45	2214.65	7380.56	17.4615	605.066
63	0.63096	7287.87	2497.45	7703.91	18.9158	609.402
64	0.50119	7559.48	2819.89	8068.3	20.4569	614.133
65	0.39811	7868.18	3206.15	8496.33	22.17	619.239
66	0.31623	8196.56	3650.79	8972.85	24.0084	624.925
67	0.25119	8595.01	4161.91	9549.64	25.8374	631.336
68	0.19953	9120.07	4736.6	10276.7	27.4455	638.297
69	0.15849	9663.43	5424.52	11081.8	29.3075	646.228
70	0.12589	10295	6154.84	11994.5	30.8731	655.39
71	0.1	10922.9	6971.8	12958.2	32.549	666.221

File: Z_p50_1.txt
Index	Frequency (Hz)	Z' (Ω)	-Z'' (Ω)	Z (Ω)	-Phase (°)	Time (s)
1	1000000	2394.8	1636.93	2900.79	34.354	21.2861
2	794330	2650.96	1535.18	3063.4	30.0753	22.7012
3	630960	2930.9	1467.55	3277.79	26.5978	24.2012
4	501190	3205.92	1383.47	3491.69	23.3419	25.8462
5	398110	3466.23	1283.88	3696.37	20.3245	30.0863
6	316230	3690.53	1192.21	3878.32	17.9029	31.4813
7	251190	3819.39	1038.77	3958.13	15.2149	35.7714
8	199530	3999.94	949.975	4111.2	13.3601	37.1114
9	158490	4150.57	859.286	4238.58	11.6966	38.4965
10	125890	4272.71	766.763	4340.97	10.1738	39.8265
11	100000	4370.02	679.05	4422.46	8.83246	41.3065
12	79433	4455.66	600.965	4496.01	7.68151	42.7365
13	63096	4522.72	530.43	4553.72	6.68916	44.1416
14	50119	4581.26	468.897	4605.19	5.84394	45.5266
15	39811	4631.08	414.321	4649.58	5.11238	47.0066
16	31623	4672	368.291	4686.49	4.50727	48.3867
17	25119	4708.12	330.099	4719.68	4.0106	49.7067
18	19953	4741.46	297.834	4750.81	3.5943	51.0767
19	15849	4771.88	271.81	4779.61	3.26009	52.5517
20	12589	4802.09	250.402	4808.61	2.98494	53.9268
21	10000	4825.71	230.274	4831.21	2.73197	55.2668
22	7943.3	4854.18	217.816	4859.07	2.56924	56.6268
23	6309.6	4877.71	206.488	4882.08	2.42406	58.0318
24	5011.9	4901.89	197.778	4905.88	2.31047	59.3719
25	3981.1	4925.05	191.437	4928.77	2.22597	60.7319
26	3162.3	4947.46	185.86	4950.95	2.1514	62.1469
27	2511.9	4969.72	182.827	4973.08	2.10686	63.5569
28	1995.3	4993.72	181.045	4997	2.07632	65.627
29	1584.9	5014.95	180.747	5018.2	2.06415	66.842
30	1258.9	5041.42	181.071	5044.68	2.05698	68.217
31	1000	5061.61	182.175	5064.89	2.06127	69.582
32	794.33	5086.81	184.793	5090.16	2.08052	71.0271
33	630.96	5110.51	188.409	5113.98	2.11137	72.3321
34	501.19	5134.49	192.966	5138.12	2.1523	73.6721
35	398.11	5160.25	198.504	5164.07	2.20296	75.0221
36	316.23	5189.16	207.074	5193.29	2.28518	76.3922
37	251.19	5214.6	216.719	5219.1	2.37985	77.7922
38	199.53	5241.51	229.012	5246.51	2.50178	79.1372
39	158.49	5272.76	242.674	5278.34	2.63513	80.6372
40	125.89	5300.34	260.578	5306.74	2.81454	82.1173
41	100	5335.4	280.146	5342.75	3.00567	83.4673
42	79.433	5368.07	302.482	5376.59	3.22512	84.8623
43	63.096	5404.6	328.651	5414.58	3.47985	86.6774
44	50.119	5457.71	351.313	5469.01	3.68304	88.1474
45	39.811	5489.78	392.523	5503.79	4.08973	97.3576
46	31.623	5540.53	431.664	5557.32	4.45492	99.0276
47	25.119	5593.89	477.531	5614.24	4.87931	100.623
48	19.953	5651.92	528.119	5676.54	5.33825	102.488
49	15.849	5719.62	582.376	5749.19	5.81386	104.623
50	12.589	5789.93	645.146	5825.76	6.35799	106.693
51	10	5872.28	717.332	5915.93	6.9645	108.963
52	7.9433	5959.58	796.72	6012.6	7.61456	111.473
53	6.3096	6052.53	887.408	6117.24	8.34115	113.833
54	5.0119	6153.98	982.673	6231.94	9.07245	116.218
55	3.9811	6268.64	1099.42	6364.32	9.9476	118.633
56	3.1623	6391.14	1240.57	6510.42	10.9849	121.188
57	2.5119	6528.89	1384.61	6674.1	11.9735	123.823
58	1.9953	6682.94	1549.43	6860.21	13.0533	126.633
59	1.5849	6838.65	1762.23	7062.05	14.45	129.333
60	1.2589	7041.46	2037.06	7330.19	16.1349	132.273
61	1	7206.93	2303.88	7566.22	17.7278	137.603
62	0.79433	7436.44	2650.13	7894.55	19.6146	140.803
63	0.63096	7688.16	3031.14	8264.12	21.5174	144.383
64	0.50119	7958.79	3509.23	8698.11	23.7939	148.329
65	0.39811	8286.6	4066.24	9230.5	26.1372	152.524
66	0.31623	8655.67	4766.41	9881.26	28.8402	157.249
67	0.25119	9161	5525.1	10698.2	31.0946	162.924
68	0.19953	9693.14	6461.98	11649.6	33.6896	169.229
69	0.15849	10329.3	7500.99	12765.5	35.9867	176.554
70	0.12589	10984.8	8699.52	14012.4	38.3778	185.234
71	0.1	11852.7	10288.9	15695.5	40.9602	195.424