Folder: Streamlit_cement_impedance/data/20200503 (part 2)

File: Z_p21_1.txt
Index	Frequency (Hz)	Z' (Ω)	-Z'' (Ω)	Z (Ω)	-Phase (°)	Time (s)
1	1000000	3607.85	6790.45	7689.4	62.0178	141.385
2	794330	5146.81	7000.31	8688.73	53.6757	143.27
3	630960	6866.08	7552.88	10207.3	47.7271	144.7
4	501190	8477.04	8121.93	11739.9	43.7745	146.145
5	398110	10802.6	9213.83	14198.2	40.4619	147.505
6	316230	12628.7	9501.45	15803.9	36.9566	148.941
7	251190	14218.1	9348.39	17016.1	33.3248	151.211
8	199530	16028.8	9328.75	18545.9	30.1993	152.551
9	158490	17760.3	9149.4	19978.4	27.2558	154.021
10	125890	19408.5	8790.2	21306.3	24.366	155.341
11	100000	20911.3	8302.7	22499.3	21.6553	156.811
12	79433	22260.9	7725.64	23563.4	19.1393	158.141
13	63096	23466.4	7091.42	24514.5	16.8146	159.461
14	50119	24523.2	6428.7	25351.8	14.6894	160.826
15	39811	25427.7	5739.66	26067.4	12.7199	162.141
16	31623	26155.8	5046.7	26638.2	10.9209	163.446
17	25119	26726	4476.37	27098.3	9.50829	164.726
18	19953	27255.8	3955.3	27541.3	8.25698	165.991
19	15849	27695.5	3472.04	27912.3	7.1456	167.281
20	12589	28064.4	3048.88	28229.5	6.20023	168.686
21	10000	28326	2651.24	28449.8	5.34716	169.991
22	7943.3	28622.2	2338.99	28717.6	4.67181	171.281
23	6309.6	28855.9	2072.28	28930.2	4.10764	172.596
24	5011.9	29061	1842.27	29119.3	3.62731	173.896
25	3981.1	29244.1	1645.37	29290.3	3.22026	175.166
26	3162.3	29414.2	1477.13	29451.3	2.87488	176.586
27	2511.9	29566.5	1334.39	29596.6	2.58411	177.931
28	1995.3	29700.1	1216.64	29725	2.34576	179.191
29	1584.9	29838	1112.91	29858.7	2.13606	180.441
30	1258.9	29955.9	1025.99	29973.5	1.96161	181.726
31	1000	30070.5	952.422	30085.6	1.81412	183.001
32	794.33	30186.4	888.412	30199.4	1.68578	184.476
33	630.96	30294	835.306	30305.5	1.57943	185.721
34	501.19	30397.7	788.129	30407.9	1.48519	187.031
35	398.11	30487.2	748.092	30496.4	1.40564	188.286
36	316.23	30581.9	713.439	30590.3	1.3364	189.616
37	251.19	30678.7	684.408	30686.4	1.27799	190.966
38	199.53	30770.4	660.033	30777.5	1.22882	192.336
39	158.49	30837.9	642.136	30844.6	1.1929	193.636
40	125.89	30924.4	627.216	30930.7	1.16193	194.966
41	100	30989.7	615.967	30995.8	1.13869	196.706
42	79.433	31053.9	612.017	31059.9	1.12905	198.346
43	63.096	31141.3	614.296	31147.4	1.13007	199.866
44	50.119	31195.4	622.475	31201.6	1.14313	201.371
45	39.811	31291.6	634.477	31298.1	1.16158	210.612
46	31.623	31357	658.5	31363.9	1.20304	212.317
47	25.119	31443.5	693.985	31451.2	1.26436	214.052
48	19.953	31489.7	748.256	31498.6	1.3612	215.962
49	15.849	31578.3	805.383	31588.6	1.46097	217.952
50	12.589	31674.4	880.428	31686.6	1.5922	219.967
51	10	31767.5	967.932	31782.2	1.74522	222.272
52	7.9433	31850.3	1076.5	31868.5	1.93579	224.607
53	6.3096	31972.7	1208.26	31995.5	2.16419	227.007
54	5.0119	32108	1361.83	32136.9	2.42869	229.512
55	3.9811	32255.8	1543.94	32292.8	2.7404	231.952
56	3.1623	32417.6	1757.67	32465.2	3.10351	234.572
57	2.5119	32606.3	2001.07	32667.7	3.51187	237.062
58	1.9953	32827.5	2291.64	32907.4	3.99325	239.752
59	1.5849	33084.8	2616.61	33188.1	4.52199	242.607
60	1.2589	33384	2983.4	33517.1	5.10673	245.542
61	1	33725.3	3410.87	33897.4	5.77507	248.932
62	0.79433	34121.6	3847.87	34337.9	6.43403	252.227
63	0.63096	34538.6	4385.84	34816	7.23689	255.838
64	0.50119	35028.1	4956.44	35377.1	8.05381	259.658
65	0.39811	35556.1	5681.75	36007.2	9.07894	263.948
66	0.31623	36154	6433.5	36722	10.09	268.778
67	0.25119	36732.7	7435.71	37477.7	11.4436	274.188
68	0.19953	37345.2	8485	38297	12.8005	280.518
69	0.15849	38155.5	9825.62	39400.3	14.4408	287.783
70	0.12589	39048.8	11198.2	40622.7	16.0015	296.378
71	0.1	39605	13133.1	41725.7	18.3456	306.648

File: Z_p21_2.txt
Index	Frequency (Hz)	Z' (Ω)	-Z'' (Ω)	Z (Ω)	-Phase (°)	Time (s)
1	1000000	3606.79	6796.8	7694.5	62.0469	37.8295
2	794330	5160.21	7043.04	8731.1	53.771	39.2195
3	630960	6854.09	7522.31	10176.6	47.6612	40.6995
4	501190	8485.63	8137.11	11756.6	43.7989	42.2246
5	398110	10802.6	9218.64	14201.4	40.4765	43.9896
6	316230	12629.3	9522.07	15816.7	37.0151	45.4946
7	251190	14222.2	9338.11	17013.8	33.2885	48.6297
8	199530	16056.2	9343.69	18577	30.1967	49.9697
9	158490	17761.5	9132.52	19971.8	27.2111	51.3347
10	125890	19403.1	8785.99	21299.6	24.3617	52.5998
11	100000	20901	8298.19	22488	21.6542	54.0248
12	79433	22259.4	7722.17	23560.8	19.1325	55.3698
13	63096	23462.3	7089.58	24510.1	16.8132	56.7348
14	50119	24514.6	6422.2	25341.8	14.6802	58.1299
15	39811	25424.9	5736.68	26064.1	12.7149	59.5249
16	31623	26147.6	5045.16	26629.9	10.921	60.7699
17	25119	26725.5	4478.03	27098.1	9.5119	62.1149
18	19953	27258.6	3954.02	27543.9	8.25351	63.445
19	15849	27696.4	3475.69	27913.6	7.15281	64.8
20	12589	28045.8	3052.13	28211.4	6.21086	66.055
21	10000	28342.9	2650.62	28466.6	5.34274	67.445
22	7943.3	28625.4	2342.18	28721.1	4.67762	68.8101
23	6309.6	28848.7	2073.58	28923.2	4.11121	70.0651
24	5011.9	29071.1	1842.41	29129.5	3.62633	71.4451
25	3981.1	29252.3	1645.44	29298.5	3.2195	72.8801
26	3162.3	29416.7	1477.86	29453.8	2.87606	74.2052
27	2511.9	29580.6	1336.82	29610.8	2.58757	75.5002
28	1995.3	29712.2	1218.42	29737.1	2.34824	76.8202
29	1584.9	29844	1114.79	29864.8	2.13923	78.0602
30	1258.9	29969.5	1028.31	29987.2	1.96516	79.3752
31	1000	30080.9	952.776	30096	1.81417	80.6853
32	794.33	30191	889.819	30204.1	1.68819	82.1203
33	630.96	30294.1	835.034	30305.6	1.57891	83.4503
34	501.19	30413.7	789.061	30423.9	1.48616	84.7103
35	398.11	30487.8	748.271	30497	1.40594	85.9854
36	316.23	30593	714.682	30601.4	1.33824	87.3304
37	251.19	30692.6	685.15	30700.2	1.2788	88.7954
38	199.53	30766.3	662.375	30773.4	1.23335	90.0254
39	158.49	30840.2	645.03	30846.9	1.19818	91.3505
40	125.89	30908.1	629.118	30914.5	1.16606	92.7955
41	100	30986.2	619.079	30992.4	1.14457	94.1455
42	79.433	31069.6	615.055	31075.6	1.13408	95.5705
43	63.096	31126.2	604.065	31132	1.1118	97.0306
44	50.119	31208.5	630.705	31214.9	1.15776	98.5706
45	39.811	31287.6	639.448	31294.1	1.17083	107.761
46	31.623	31363.2	668.245	31370.3	1.2206	109.381
47	25.119	31427.9	699.229	31435.7	1.27454	110.976
48	19.953	31514.9	756.385	31524	1.37488	112.941
49	15.849	31593	814.344	31603.5	1.47653	114.881
50	12.589	31681.1	889.95	31693.6	1.60907	116.861
51	10	31789.9	979.636	31805	1.76506	119.251
52	7.9433	31877.9	1092.06	31896.6	1.96205	121.511
53	6.3096	32006.7	1223.17	32030.1	2.18855	123.916
54	5.0119	32115.1	1375.51	32144.5	2.45252	126.336
55	3.9811	32278.4	1562.98	32316.2	2.77221	128.801
56	3.1623	32437.3	1775.44	32485.8	3.13294	131.311
57	2.5119	32634	2024.36	32696.8	3.54963	133.821
58	1.9953	32849.7	2314.1	32931.1	4.02956	136.541
59	1.5849	33133.4	2635.36	33238	4.54761	139.246
60	1.2589	33406.4	3003.25	33541.2	5.1371	142.186
61	1	33761.5	3436.73	33936	5.81236	145.491
62	0.79433	34163.1	3877.68	34382.4	6.47564	148.752
63	0.63096	34581.2	4418.86	34862.4	7.28192	152.322
64	0.50119	35079.3	5009.75	35435.2	8.12759	156.247
65	0.39811	35547.5	5714.75	36004	9.13294	160.647
66	0.31623	36149.7	6558.17	36739.8	10.2826	165.607
67	0.25119	36765.2	7383.51	37499.3	11.3556	171.062
68	0.19953	37420.2	8435.62	38359.2	12.7038	177.212
69	0.15849	38090.8	9780.57	39326.4	14.4007	184.502
70	0.12589	39001.8	11478.9	40655.9	16.4	193.172
71	0.1	39885.3	13041.1	41963.1	18.1059	203.368

File: Z_p21_3.txt
Index	Frequency (Hz)	Z' (Ω)	-Z'' (Ω)	Z (Ω)	-Phase (°)	Time (s)
1	1000000	3629.12	6794.39	7702.87	61.8918	53.0648
2	794330	5245.12	7008.9	8754.19	53.1906	54.6048
3	630960	6916.6	7550.92	10239.9	47.5105	56.1798
4	501190	8532.85	8125.27	11782.6	43.5984	57.6298
5	398110	10795.6	9211.3	14191.3	40.4722	59.1899
6	316230	12595	9507.67	15780.7	37.0482	60.6599
7	251190	14223.9	9349.14	17021.3	33.3163	63.0999
8	199530	16029.4	9343.26	18553.7	30.2372	64.525
9	158490	17778.2	9138.06	19989.3	27.2033	65.855
10	125890	19401.8	8781.96	21296.8	24.3533	67.13
11	100000	20910	8300.62	22497.3	21.6515	68.535
12	79433	22258	7728.34	23561.5	19.1479	69.9101
13	63096	23468.6	7093.92	24517.3	16.8187	71.4201
14	50119	24523	6427.4	25351.3	14.6867	72.9901
15	39811	25430.2	5739.62	26069.8	12.7186	74.4752
16	31623	26154.6	5049.24	26637.5	10.9267	75.7652
17	25119	26726.8	4475.11	27098.9	9.50537	77.1602
18	19953	27256.1	3958.69	27542.1	8.26388	78.5602
19	15849	27701.1	3479.42	27918.7	7.1592	80.0603
20	12589	28073.6	3054.2	28239.2	6.20895	81.3453
21	10000	28342.6	2654.55	28466.7	5.35068	82.6103
22	7943.3	28620.5	2341.82	28716.1	4.67771	84.0003
23	6309.6	28868.3	2074.01	28942.8	4.10928	85.4754
24	5011.9	29065.2	1842.87	29123.6	3.62795	86.8454
25	3981.1	29248.6	1645.62	29294.9	3.22024	88.0854
26	3162.3	29424.5	1478.26	29461.6	2.87606	89.4554
27	2511.9	29569.6	1337.69	29599.8	2.59023	90.8755
28	1995.3	29716	1217.79	29740.9	2.34673	92.3455
29	1584.9	29841.3	1113.31	29862.1	2.13658	93.5805
30	1258.9	29976.3	1028.9	29994	1.96583	94.9055
31	1000	30096.1	954.136	30111.2	1.81584	96.1856
32	794.33	30204	892.049	30217.2	1.69169	97.6606
33	630.96	30310.1	836.786	30321.7	1.58139	98.8956
34	501.19	30412.2	789.79	30422.5	1.48761	100.336
35	398.11	30521.8	750.09	30531.1	1.40779	101.606
36	316.23	30595.4	716.482	30603.8	1.3415	102.966
37	251.19	30690.1	686.564	30697.8	1.28154	104.251
38	199.53	30772.8	663.725	30779.9	1.2356	105.701
39	158.49	30852.3	644.32	30859	1.19639	107.091
40	125.89	30935	629.292	30941.4	1.16537	108.471
41	100	31007.2	620.566	31013.4	1.14654	109.886
42	79.433	31073.1	619.155	31079.2	1.14151	111.376
43	63.096	31157.4	620.566	31163.6	1.14101	113.026
44	50.119	31228.5	627.134	31234.8	1.15047	114.631
45	39.811	31312.9	645.378	31319.5	1.18074	123.941
46	31.623	31379.6	668.364	31386.7	1.22018	125.596
47	25.119	31463.4	698.696	31471.1	1.27214	127.516
48	19.953	31539.9	760.359	31549	1.38101	129.311
49	15.849	31606	815.504	31616.6	1.47803	131.276
50	12.589	31696.7	890.657	31709.2	1.60955	133.451
51	10	31785.5	981.998	31800.7	1.76956	135.891
52	7.9433	31904	1095.93	31922.8	1.96739	138.276
53	6.3096	32011.4	1222.53	32034.7	2.1871	140.656
54	5.0119	32132.3	1381.19	32162	2.46132	143.191
55	3.9811	32286.3	1562.82	32324.1	2.77125	145.616
56	3.1623	32459.2	1778.82	32508	3.13676	148.302
57	2.5119	32654.6	2031.85	32717.7	3.56049	150.937
58	1.9953	32871	2317.04	32952.6	4.03205	153.627
59	1.5849	33157.5	2641.55	33262.6	4.55494	156.492
60	1.2589	33441.8	3014.77	33577.4	5.15128	159.412
61	1	33784	3445.02	33959.2	5.82245	162.892
62	0.79433	34177.4	3882.04	34397.1	6.48018	166.097
63	0.63096	34629.2	4424.35	34910.6	7.28088	169.627
64	0.50119	35101.4	4992.9	35454.8	8.09556	173.517
65	0.39811	35601.8	5728.66	36059.8	9.14105	177.982
66	0.31623	36196.9	6504.38	36776.7	10.187	182.772
67	0.25119	36782.9	7507.75	37541.3	11.5362	188.182
68	0.19953	37410.6	8541.27	38373.3	12.8608	194.542
69	0.15849	38151.6	9899.28	39414.9	14.5459	201.928
70	0.12589	39131.9	11434.6	40768.3	16.2887	210.558
71	0.1	39754.9	13118.1	41863.3	18.2616	220.898

File: Z_p22_1.txt
Index	Frequency (Hz)	Z' (Ω)	-Z'' (Ω)	Z (Ω)	-Phase (°)	Time (s)
1	1000000	3926.65	7247.65	8243	61.5519	47.3037
2	794330	5684.45	7463.23	9381.52	52.7049	48.8437
3	630960	7506.46	7879.22	10882.5	46.3879	50.4287
4	501190	9390.67	8379.15	12585.5	41.742	52.0188
5	398110	11846	9460.52	15160.1	38.6117	53.6588
6	316230	13724.4	9671.31	16789.7	35.1716	55.2688
7	251190	15374.6	9306.91	17972.2	31.1883	58.6339
8	199530	17213.2	9111.35	19475.9	27.8934	59.9989
9	158490	18870.2	8763.75	20806	24.9112	61.4989
10	125890	20410.3	8229.41	22006.9	21.9592	62.964
11	100000	21768.4	7603.96	23058.2	19.2549	64.479
12	79433	22949.6	6926.23	23972	16.7939	65.834
13	63096	23954.7	6226.64	24750.7	14.5707	67.154
14	50119	24805	5531.81	25414.3	12.5719	68.5841
15	39811	25522	4850.25	25978.8	10.7603	70.0291
16	31623	26073.4	4205.6	26410.4	9.1628	71.4191
17	25119	26496.5	3678.34	26750.6	7.90349	72.9841
18	19953	26874.2	3230.28	27067.6	6.85407	74.5092
19	15849	27220.3	2820.66	27366	5.91607	75.9692
20	12589	27501.3	2480.2	27612.9	5.15328	77.4592
21	10000	27702.8	2151.95	27786.2	4.44181	78.8393
22	7943.3	27912.4	1904.87	27977.3	3.90407	80.0993
23	6309.6	28101.9	1695.95	28153.1	3.4536	81.3693
24	5011.9	28280.7	1516.26	28321.3	3.06896	82.6243
25	3981.1	28420.6	1364.46	28453.4	2.74863	84.0443
26	3162.3	28561.9	1236.99	28588.6	2.47988	85.3944
27	2511.9	28704.1	1127.88	28726.3	2.25019	86.9644
28	1995.3	28817	1035.13	28835.6	2.05722	88.4444
29	1584.9	28932.9	954.559	28948.6	1.88963	89.9195
30	1258.9	29043.2	884.959	29056.7	1.74529	91.1445
31	1000	29156.7	826.531	29168.4	1.62378	92.5295
32	794.33	29255.1	773.544	29265.3	1.51463	94.0745
33	630.96	29351	725.521	29359.9	1.41599	95.6146
34	501.19	29446.1	682.906	29454	1.32855	96.9796
35	398.11	29538.5	644.915	29545.6	1.25074	98.4396
36	316.23	29616.6	610.294	29622.9	1.1805	99.9246
37	251.19	29692.3	578.368	29698	1.11591	101.55
38	199.53	29767.7	548.174	29772.7	1.05499	103.1
39	158.49	29835.8	520.398	29840.4	0.999254	104.68
40	125.89	29895.9	490.902	29900	0.940734	106.26
41	100	29950.7	466.342	29954.4	0.89204	107.95
42	79.433	30014.5	445.791	30017.8	0.850923	109.62
43	63.096	30076.1	430.372	30079.1	0.819816	111.33
44	50.119	30135.6	415.632	30138.5	0.790177	112.8
45	39.811	30171.5	398.604	30174.1	0.756906	121.86
46	31.623	30223.4	388.762	30225.9	0.736952	123.465
47	25.119	30264.6	380.623	30267	0.720543	125.13
48	19.953	30323.6	391.657	30326.1	0.739987	127.045
49	15.849	30343.5	397.763	30346.1	0.751029	129.24
50	12.589	30401.5	412.079	30404.3	0.776571	131.195
51	10	30449.6	431.126	30452.6	0.811178	133.445
52	7.9433	30471.5	455.857	30474.9	0.857088	135.795
53	6.3096	30532.3	493.261	30536.3	0.925555	138.14
54	5.0119	30578	538.816	30582.8	1.0095	140.61
55	3.9811	30648.1	596.858	30653.9	1.11567	143.1
56	3.1623	30700.4	667.835	30707.6	1.24618	145.765
57	2.5119	30732.3	751.327	30741.4	1.40046	148.331
58	1.9953	30828.2	855.453	30840.1	1.5895	150.886
59	1.5849	30912.6	979.225	30928.1	1.81436	153.601
60	1.2589	30990.9	1126.91	31011.4	2.08249	156.406
61	1	31086.1	1315.55	31114	2.42329	159.741
62	0.79433	31210.8	1508.64	31247.3	2.76737	163.126
63	0.63096	31323.8	1748.04	31372.5	3.1941	166.781
64	0.50119	31477.2	2049	31543.8	3.72441	170.706
65	0.39811	31639.8	2385.58	31729.6	4.31182	174.981
66	0.31623	31846.8	2820.2	31971.4	5.06065	179.766
67	0.25119	32039.4	3257.8	32204.6	5.80593	185.166
68	0.19953	32293	3806.09	32516.5	6.72195	191.511
69	0.15849	32546	4491.05	32854.4	7.85668	199.026
70	0.12589	32843.4	5393.66	33283.3	9.32608	207.752
71	0.1	33244	6290.98	33834	10.7157	218.122

File: Z_p22_2.txt
Index	Frequency (Hz)	Z' (Ω)	-Z'' (Ω)	Z (Ω)	-Phase (°)	Time (s)
1	1000000	3992.94	7289.79	8311.71	61.2885	55.9658
2	794330	5703.75	7423.56	9361.74	52.4638	57.2709
3	630960	7480.76	7913.08	10889.4	46.6087	58.7459
4	501190	9342.98	8419.03	12576.6	42.0222	60.3759
5	398110	11799.6	9468.83	15129.1	38.7461	61.9609
6	316230	13706.6	9620.81	16746.1	35.0653	63.596
7	251190	15346.9	9266.26	17927.4	31.123	67.096
8	199530	17162.7	9089.99	19421.2	27.9074	68.4711
9	158490	18813.5	8713.02	20733.2	24.8501	69.9711
10	125890	20373.4	8194.76	21959.7	21.9114	71.4311
11	100000	21723.6	7572.07	23005.4	19.2167	72.8961
12	79433	22894	6891.63	23908.7	16.7531	74.1762
13	63096	23905.9	6197.75	24696.2	14.5343	75.5712
14	50119	24746.7	5507.05	25352.1	12.546	77.0562
15	39811	25457.2	4836.82	25912.6	10.7579	78.5312
16	31623	26001.1	4182.8	26335.4	9.13888	79.8913
17	25119	26435.1	3670.9	26688.7	7.90579	81.3113
18	19953	26824.1	3221.17	27016.8	6.84758	82.7213
19	15849	27143.2	2806.72	27288	5.90364	84.2513
20	12589	27424.3	2454.74	27533.9	5.11489	85.5414
21	10000	27615.7	2140.52	27698.5	4.43219	86.8614
22	7943.3	27844.4	1895.45	27908.8	3.89429	88.1814
23	6309.6	28026.3	1688.16	28077.1	3.44704	89.7965
24	5011.9	28205.8	1509.83	28246.2	3.06407	91.2515
25	3981.1	28352.9	1359.94	28385.5	2.74608	92.7065
26	3162.3	28481.8	1231.03	28508.4	2.47487	94.0615
27	2511.9	28621.4	1122.73	28643.4	2.24639	95.3916
28	1995.3	28743.7	1030.53	28762.2	2.05331	96.6416
29	1584.9	28857.7	950.654	28873.3	1.8868	98.0916
30	1258.9	28974.8	882.596	28988.2	1.74474	99.5816
31	1000	29082.4	823.755	29094.1	1.62246	100.982
32	794.33	29186.6	771.578	29196.8	1.51432	102.327
33	630.96	29273.9	723.932	29282.8	1.41661	103.672
34	501.19	29377.7	681.671	29385.6	1.32923	105.272
35	398.11	29453	642.483	29460	1.24964	106.547
36	316.23	29553.3	609.136	29559.5	1.18078	107.807
37	251.19	29617.9	576.141	29623.6	1.1144	109.192
38	199.53	29698.5	544.999	29703.5	1.05132	110.652
39	158.49	29760.5	518.412	29765	0.997963	112.212
40	125.89	29815	490.133	29819.1	0.941807	113.807
41	100	29895.6	467.1	29899.3	0.895138	115.372
42	79.433	29942.9	445.847	29946.2	0.853065	116.872
43	63.096	29995.7	425.143	29998.7	0.812026	118.477
44	50.119	30053.1	411.013	30055.9	0.78354	120.117
45	39.811	30106	398.014	30108.6	0.757431	129.457
46	31.623	30151.2	388.823	30153.7	0.738831	131.147
47	25.119	30204.7	379.737	30207.1	0.720291	133.047
48	19.953	30248	389.971	30250.5	0.738642	135.187
49	15.849	30278.9	399.519	30281.5	0.755953	137.222
50	12.589	30317	410.922	30319.8	0.77655	139.257
51	10	30368.2	428.602	30371.2	0.808593	141.712
52	7.9433	30414.6	461.858	30418.1	0.869993	144.137
53	6.3096	30456.2	495.177	30460.2	0.931469	146.543
54	5.0119	30511.9	541.11	30516.7	1.016	148.993
55	3.9811	30575.6	600.104	30581.5	1.12439	151.513
56	3.1623	30624.5	664.942	30631.7	1.24385	154.193
57	2.5119	30685.7	751.124	30694.9	1.4022	156.783
58	1.9953	30750.7	853.388	30762.5	1.58966	159.573
59	1.5849	30829.6	975.427	30845.1	1.81219	162.298
60	1.2589	30920.5	1128.44	30941.1	2.09008	165.273
61	1	31024.8	1306.67	31052.3	2.4117	168.518
62	0.79433	31126.3	1506.94	31162.8	2.77174	171.938
63	0.63096	31271.1	1757	31320.5	3.21583	175.483
64	0.50119	31433.7	2032.45	31499.3	3.6995	179.288
65	0.39811	31591.5	2383.98	31681.4	4.31551	183.718
66	0.31623	31789.9	2781.4	31911.3	5.00027	188.608
67	0.25119	31997.9	3299.98	32167.7	5.88816	194.078
68	0.19953	32235.3	3859.44	32465.5	6.82735	200.238
69	0.15849	32523	4559.36	32841.1	7.98022	207.529
70	0.12589	32833.5	5295.61	33257.8	9.16214	216.089
71	0.1	33039.2	6392.1	33651.8	10.9498	226.284

File: Z_p22_3.txt
Index	Frequency (Hz)	Z' (Ω)	-Z'' (Ω)	Z (Ω)	-Phase (°)	Time (s)
1	1000000	3927.04	7230.97	8228.52	61.4942	34.0194
2	794330	5659.88	7389.36	9307.89	52.5497	35.4295
3	630960	7501.36	7871.64	10873.5	46.3798	36.8395
4	501190	9400.16	8341.29	12567.4	41.5845	38.3545
5	398110	11779.2	9474.08	15116.4	38.81	39.8545
6	316230	13684.5	9611.17	16722.5	35.0819	41.3546
7	251190	15349.5	9255.32	17924	31.0887	44.5146
8	199530	17145.3	9069.42	19396.3	27.8777	45.9947
9	158490	18833.6	8719.8	20754.3	24.8437	47.4847
10	125890	20350.7	8176.33	21931.8	21.8889	48.8397
11	100000	21700.1	7557.3	22978.4	19.2012	50.3447
12	79433	22868.3	6870.81	23878.2	16.723	51.7498
13	63096	23871.9	6182.82	24659.6	14.5205	53.0948
14	50119	24719.6	5495.32	25323.1	12.5334	54.3698
15	39811	25432.9	4826.72	25886.8	10.746	55.7398
16	31623	25972.9	4173.66	26306.1	9.12899	57.2299
17	25119	26394.7	3665.91	26648.1	7.90711	58.8099
18	19953	26778.7	3206.24	26970	6.82757	60.2449
19	15849	27112.9	2804.72	27257.6	5.90601	61.7249
20	12589	27386.2	2455.67	27496.1	5.12391	63.045
21	10000	27591.3	2136.39	27673.9	4.42756	64.37
22	7943.3	27807.7	1892.85	27872	3.89409	65.64
23	6309.6	27995.2	1685.12	28045.8	3.44467	67.165
24	5011.9	28163.7	1507.29	28204	3.06349	68.6651
25	3981.1	28312.4	1357.94	28345	2.74597	70.1301
26	3162.3	28452.6	1228.74	28479.1	2.47281	71.4201
27	2511.9	28575.5	1120.23	28597.4	2.24499	72.7102
28	1995.3	28711.4	1028.98	28729.9	2.05252	73.9602
29	1584.9	28821.8	952.818	28837.5	1.89345	75.3502
30	1258.9	28947.4	883.093	28960.8	1.74737	76.7202
31	1000	29037.9	822.08	29049.6	1.62164	78.0153
32	794.33	29153.4	770.619	29163.6	1.51416	79.3903
33	630.96	29237.1	721.711	29246	1.41405	80.6953
34	501.19	29335.9	680.917	29343.8	1.32966	82.3403
35	398.11	29420.3	642.271	29427.4	1.25062	83.9104
36	316.23	29494.3	607.099	29500.5	1.17919	85.2754
37	251.19	29584.7	576.662	29590.4	1.11666	86.5704
38	199.53	29652.7	543.881	29657.7	1.05079	87.8404
39	158.49	29724	517.689	29728.5	0.997793	89.2455
40	125.89	29780	489.98	29784.1	0.94262	90.7155
41	100	29858	466.345	29861.7	0.894817	92.0405
42	79.433	29893	444.807	29896.3	0.852498	93.4105
43	63.096	29960.3	427.489	29963.3	0.817471	94.8706
44	50.119	30020.5	410.36	30023.3	0.783145	96.3306
45	39.811	30067.3	397.657	30069.9	0.757726	105.401
46	31.623	30119.4	386.002	30121.9	0.734246	106.986
47	25.119	30157.3	380.737	30159.7	0.723322	108.671
48	19.953	30207.4	390.593	30209.9	0.740816	110.501
49	15.849	30247	399.141	30249.6	0.756034	112.406
50	12.589	30289.7	409.908	30292.5	0.77533	114.326
51	10	30336.9	429.246	30340	0.81064	116.621
52	7.9433	30373	459.155	30376.5	0.866085	119.011
53	6.3096	30422.8	495.387	30426.9	0.932887	121.371
54	5.0119	30472.6	540.599	30477.4	1.01635	123.806
55	3.9811	30530.6	595.894	30536.4	1.11815	126.201
56	3.1623	30597.1	667.355	30604.4	1.24948	128.591
57	2.5119	30644.7	754.118	30653.9	1.40968	131.126
58	1.9953	30715.1	858.26	30727.1	1.60057	133.681
59	1.5849	30795.4	982.389	30811	1.82715	136.486
60	1.2589	30885.5	1124.64	30906	2.0854	139.366
61	1	30983.6	1312	31011.3	2.42475	142.551
62	0.79433	31105.7	1513.7	31142.5	2.78598	145.767
63	0.63096	31247.2	1744.57	31295.9	3.19557	149.232
64	0.50119	31369.4	2044.8	31436	3.72952	153.007
65	0.39811	31534.3	2379.79	31624	4.31575	157.237
66	0.31623	31754	2829.39	31879.8	5.0918	161.877
67	0.25119	31947.9	3258.92	32113.7	5.82443	167.327
68	0.19953	32184.2	3816.68	32409.7	6.76304	173.522
69	0.15849	32428.5	4513.82	32741.1	7.92426	180.862
70	0.12589	32793.7	5401.25	33235.5	9.35286	189.432
71	0.1	33039.6	6271.2	33629.5	10.7474	199.552

File: Z_p23_1.txt
Index	Frequency (Hz)	Z' (Ω)	-Z'' (Ω)	Z (Ω)	-Phase (°)	Time (s)
1	1000000	3767.15	8469.04	9269.09	66.0198	134.066
2	794330	5840.93	8876.23	10625.6	56.6534	135.621
3	630960	8067.21	9654.12	12581	50.1171	137.291
4	501190	10234.9	10615.7	14746.1	46.0462	138.926
5	398110	13182	12707.3	18309.6	43.9496	140.406
6	316230	15639.8	13482.3	20648.9	40.763	141.901
7	251190	17909.8	13575.8	22473.6	37.1623	146.287
8	199530	20428.5	13935.4	24728.9	34.3	148.957
9	158490	22983.6	14073.9	26950.3	31.481	150.192
10	125890	25480.4	14008.2	29077.1	28.8004	151.557
11	100000	27903.5	13758.2	31111	26.2462	153.067
12	79433	30227.6	13370.4	33052.7	23.861	154.727
13	63096	32453.7	12836.2	34900	21.58	156.092
14	50119	34536.2	12177.8	36620.3	19.4232	157.372
15	39811	36508.5	11374.8	38239.4	17.3053	158.732
16	31623	38219.9	10412.8	39613	15.2401	160.332
17	25119	39621	9566.96	40759.6	13.5749	162.527
18	19953	40961.4	8737.25	41882.8	12.041	163.807
19	15849	42155	7909.74	42890.7	10.6271	165.237
20	12589	43166	7108.95	43747.5	9.35203	166.872
21	10000	43975.9	6289.73	44423.4	8.13964	168.632
22	7943.3	44740.9	5614.28	45091.7	7.15234	170.007
23	6309.6	45409.6	5008.52	45684.9	6.29408	171.422
24	5011.9	45996.8	4464.76	46213	5.54415	172.727
25	3981.1	46480.1	3984.29	46650.5	4.89944	174.097
26	3162.3	46914.6	3562.35	47049.6	4.34229	175.572
27	2511.9	47285.3	3196.24	47393.2	3.86702	176.967
28	1995.3	47621	2880.98	47708.1	3.46207	178.397
29	1584.9	47930	2608.46	48000.9	3.1151	179.822
30	1258.9	48214.4	2375.15	48272.9	2.82024	181.392
31	1000	48480.4	2178.2	48529.3	2.57255	182.717
32	794.33	48719.3	2007.22	48760.6	2.35924	184.092
33	630.96	48936.2	1867.14	48971.8	2.18504	185.377
34	501.19	49142.8	1744.22	49173.8	2.03274	187.102
35	398.11	49339.4	1645.32	49366.8	1.90994	188.277
36	316.23	49552.6	1571.79	49577.5	1.81679	189.642
37	251.19	49746.9	1509.99	49769.9	1.73859	191.232
38	199.53	49894.9	1463.96	49916.4	1.68062	192.792
39	158.49	50078.6	1433.96	50099.2	1.64017	194.377
40	125.89	50218.8	1414.62	50238.7	1.61355	195.862
41	100	50386.6	1418.18	50406.6	1.61222	197.257
42	79.433	50543.4	1435.25	50563.7	1.62656	198.897
43	63.096	50727.7	1473.97	50749.1	1.66435	200.668
44	50.119	50894.4	1516.18	50917	1.70637	202.388
45	39.811	51053.8	1590.31	51078.6	1.78416	211.868
46	31.623	51233.8	1679.61	51261.3	1.87767	213.498
47	25.119	51453.9	1802.01	51485.5	2.00578	215.253
48	19.953	51693.1	1959.4	51730.2	2.17073	217.408
49	15.849	51877.5	2123.79	51920.9	2.3443	219.553
50	12.589	52104.1	2324.15	52155.9	2.55404	221.548
51	10	52402.2	2567.23	52465	2.80473	224.068
52	7.9433	52722.4	2832.97	52798.4	3.07576	226.468
53	6.3096	53052.4	3144.3	53145.5	3.39183	228.883
54	5.0119	53426	3494.07	53540.2	3.74182	231.483
55	3.9811	53845	3884.9	53984.9	4.12673	234.083
56	3.1623	54245.9	4339.36	54419.2	4.57359	236.838
57	2.5119	54712.8	4867.5	54928.9	5.08391	239.473
58	1.9953	55196.8	5484.61	55468.7	5.67454	242.393
59	1.5849	55741.3	6190.57	56084	6.33724	245.303
60	1.2589	56302.1	7064.72	56743.6	7.15203	248.438
61	1	56948.3	8130.96	57525.9	8.12565	253.663
62	0.79433	57695.4	9351.05	58448.3	9.20623	256.809
63	0.63096	58322.5	10848.9	59323	10.5375	260.454
64	0.50119	59209.4	12792.2	60575.6	12.1914	264.329
65	0.39811	60099.3	15075.7	61961.3	14.0819	268.564
66	0.31623	61461	17862.1	64004	16.2052	273.414
67	0.25119	62667.3	20891.6	66058	18.437	278.919
68	0.19953	64382	24644.9	68937.7	20.9464	285.069
69	0.15849	66283.9	29285.9	72465.3	23.8371	292.484
70	0.12589	68925.7	35214.9	77400.5	27.063	301.104
71	0.1	72047.3	40842.2	82818.4	29.548	311.31