Folder: Streamlit_cement_impedance/data/20200504 (part 5)

File: Z_p42_1.txt
Index	Frequency (Hz)	Z' (Ω)	-Z'' (Ω)	Z (Ω)	-Phase (°)	Time (s)
1	1000000	1766.5	811.881	1944.14	24.6834	141.36
2	794330	1851.58	734.425	1991.91	21.6357	142.905
3	630960	1961.54	670.492	2072.96	18.8715	144.26
4	501190	2067.56	608.012	2155.11	16.3871	145.73
5	398110	2155.66	535.518	2221.18	13.9513	147.09
6	316230	2241.94	482.231	2293.22	12.1391	148.466
7	251190	2272.98	402.88	2308.41	10.0511	150.766
8	199530	2341.26	364.483	2369.46	8.84867	152.046
9	158490	2397.21	325.583	2419.22	7.73442	153.446
10	125890	2440.98	290.096	2458.16	6.77747	154.711
11	100000	2477.89	257.313	2491.21	5.92856	156.101
12	79433	2508.24	228.636	2518.64	5.20835	157.401
13	63096	2533.69	203.348	2541.83	4.58858	158.801
14	50119	2555.02	181.671	2561.47	4.06708	160.186
15	39811	2574.5	163.092	2579.66	3.62477	161.476
16	31623	2588.99	147.137	2593.17	3.25271	162.751
17	25119	2605.99	135.543	2609.52	2.97739	164.031
18	19953	2619.31	125.833	2622.33	2.7504	165.386
19	15849	2632.11	118.354	2634.77	2.5746	166.661
20	12589	2644.13	112.917	2646.54	2.44533	167.941
21	10000	2655.61	109.177	2657.85	2.35421	169.221
22	7943.3	2668.82	107.25	2670.98	2.30127	170.541
23	6309.6	2682.44	106.417	2684.55	2.27184	171.876
24	5011.9	2694.41	106.739	2696.52	2.26858	173.156
25	3981.1	2708.58	108.028	2710.73	2.28396	174.451
26	3162.3	2721.55	110.503	2723.79	2.3251	175.746
27	2511.9	2736.08	113.69	2738.45	2.37939	177.141
28	1995.3	2749.52	117.964	2752.04	2.45668	178.486
29	1584.9	2765.63	123.162	2768.37	2.54987	179.766
30	1258.9	2780.96	129.444	2783.97	2.66499	181.031
31	1000	2799.48	136.414	2802.8	2.78973	182.281
32	794.33	2816.43	144.748	2820.15	2.94208	183.691
33	630.96	2835.66	154.402	2839.86	3.11669	185.006
34	501.19	2856.16	165.189	2860.93	3.31007	186.286
35	398.11	2877.51	177.841	2883	3.53661	187.541
36	316.23	2901.67	191.794	2908	3.78162	188.821
37	251.19	2925.3	207.497	2932.65	4.05731	190.986
38	199.53	2952.81	225.161	2961.38	4.36054	192.186
39	158.49	2984.09	244.638	2994.1	4.68667	193.551
40	125.89	3014.44	265.857	3026.14	5.04014	194.946
41	100	3049.04	289.303	3062.73	5.42019	196.291
42	79.433	3087.65	315.351	3103.71	5.83156	197.701
43	63.096	3128.27	343.496	3147.07	6.26619	199.146
44	50.119	3173.86	376.09	3196.06	6.75783	200.591
45	39.811	3224.04	410.119	3250.02	7.24945	209.687
46	31.623	3275.98	448.797	3306.58	7.80074	211.272
47	25.119	3333.9	491.217	3369.89	8.38167	212.942
48	19.953	3397.05	540.53	3439.78	9.04097	214.807
49	15.849	3468.17	593.736	3518.62	9.71463	216.737
50	12.589	3543.4	653.269	3603.12	10.4459	218.727
51	10	3627.7	719.595	3698.38	11.2196	221.002
52	7.9433	3718.54	792.986	3802.16	12.0381	223.302
53	6.3096	3818.32	874.065	3917.09	12.8936	225.612
54	5.0119	3929.15	965.769	4046.1	13.8093	227.967
55	3.9811	4049	1068.44	4187.59	14.7821	230.467
56	3.1623	4180	1182.24	4343.97	15.7926	232.957
57	2.5119	4327.12	1311.87	4521.61	16.8659	235.527
58	1.9953	4484.22	1455.72	4714.59	17.985	238.302
59	1.5849	4658.45	1619.69	4932	19.172	241.067
60	1.2589	4851.34	1806.2	5176.66	20.4208	243.872
61	1	5059.43	2021.98	5448.51	21.7839	247.052
62	0.79433	5299.7	2258.9	5761.03	23.0852	250.317
63	0.63096	5553.25	2539.42	6106.33	24.5739	253.852
64	0.50119	5838.61	2849.05	6496.65	26.0109	257.608
65	0.39811	6152.08	3223.24	6945.31	27.6512	261.818
66	0.31623	6487.37	3635.74	7436.71	29.2677	266.608
67	0.25119	6897.66	4163.64	8056.9	31.1165	271.993
68	0.19953	7307.15	4741.68	8710.79	32.9799	278.533
69	0.15849	7817.5	5415.24	9509.9	34.7106	285.768
70	0.12589	8388.78	6132.71	10391.4	36.1691	294.378
71	0.1	8919.38	7092.48	11395.6	38.4909	304.588

File: Z_p42_2.txt
Index	Frequency (Hz)	Z' (Ω)	-Z'' (Ω)	Z (Ω)	-Phase (°)	Time (s)
1	1000000	1767.24	813.562	1945.51	24.7193	449.978
2	794330	1851.02	735.18	1991.68	21.6617	451.373
3	630960	1960.99	670.52	2072.45	18.8771	452.753
4	501190	2067.17	611.274	2155.65	16.4733	454.228
5	398110	2156.3	536.483	2222.04	13.9714	455.598
6	316230	2242.47	482.709	2293.83	12.148	456.948
7	251190	2273.76	403.067	2309.21	10.0523	459.193
8	199530	2344.28	364.371	2372.43	8.83477	460.478
9	158490	2398.06	325.988	2420.11	7.74125	461.848
10	125890	2443.31	290.219	2460.49	6.77391	463.113
11	100000	2479.08	257.451	2492.41	5.92889	464.558
12	79433	2509.92	228.964	2520.34	5.21231	465.833
13	63096	2535.27	203.666	2543.43	4.59288	467.213
14	50119	2556.86	181.779	2563.31	4.06659	468.583
15	39811	2576.12	163.226	2581.28	3.62548	469.938
16	31623	2592.03	147.348	2596.21	3.25358	471.223
17	25119	2606.45	135.447	2609.97	2.97477	472.613
18	19953	2619.88	125.926	2622.9	2.75184	473.918
19	15849	2634.64	118.513	2637.3	2.57558	476.053
20	12589	2646.53	113.15	2648.94	2.44814	477.278
21	10000	2658.58	109.405	2660.83	2.35648	478.548
22	7943.3	2671.18	107.357	2673.33	2.30152	479.813
23	6309.6	2683.83	106.447	2685.94	2.2713	481.093
24	5011.9	2696.76	106.734	2698.87	2.2665	482.409
25	3981.1	2710.52	108.153	2712.67	2.28496	483.769
26	3162.3	2723.6	110.504	2725.84	2.32337	485.039
27	2511.9	2737.29	113.881	2739.66	2.38233	486.319
28	1995.3	2752.31	118.05	2754.84	2.45598	487.584
29	1584.9	2767.89	123.17	2770.63	2.54796	488.864
30	1258.9	2783.19	129.293	2786.19	2.65977	490.169
31	1000	2800.32	136.589	2803.65	2.79245	491.439
32	794.33	2817.49	145.012	2821.22	2.94634	492.809
33	630.96	2838.41	154.452	2842.61	3.11467	494.069
34	501.19	2857.71	165.285	2862.48	3.3102	495.384
35	398.11	2880.79	177.942	2886.28	3.53459	496.699
36	316.23	2903.59	191.991	2909.93	3.783	497.979
37	251.19	2928.92	207.844	2936.28	4.05907	499.269
38	199.53	2956.14	225.288	2964.72	4.3581	500.519
39	158.49	2984.56	244.716	2994.58	4.68743	501.839
40	125.89	3017.23	266.284	3028.96	5.04353	503.209
41	100	3052.17	289.511	3065.87	5.41854	504.529
42	79.433	3089.13	315.323	3105.18	5.82828	505.889
43	63.096	3130.62	343.689	3149.43	6.26502	507.304
44	50.119	3178.17	375.275	3200.25	6.73424	508.719
45	39.811	3225.94	409.887	3251.88	7.24119	517.759
46	31.623	3278.13	448.186	3308.63	7.78521	519.374
47	25.119	3336.79	491.036	3372.73	8.37145	520.974
48	19.953	3400.52	540.33	3443.18	9.02862	522.799
49	15.849	3468.37	593.542	3518.79	9.71096	524.709
50	12.589	3544.81	652.168	3604.3	10.4246	526.654
51	10	3628.51	719.204	3699.1	11.2112	528.934
52	7.9433	3719.92	791.966	3803.29	12.0187	531.204
53	6.3096	3822.45	874.055	3921.11	12.88	533.509
54	5.0119	3929.69	964.968	4046.43	13.7965	535.92
55	3.9811	4052.15	1066.96	4190.26	14.7515	538.285
56	3.1623	4184.26	1180.86	4347.7	15.7599	540.74
57	2.5119	4328.16	1310.79	4522.29	16.849	543.2
58	1.9953	4487.48	1456.38	4717.9	17.9805	545.785
59	1.5849	4660.09	1621.05	4933.99	19.1807	548.475
60	1.2589	4851.03	1805.37	5176.09	20.4133	551.315
61	1	5058.43	2020.62	5447.07	21.7746	554.59
62	0.79433	5300.88	2257.37	5761.52	23.0666	557.775
63	0.63096	5553.96	2540	6107.22	24.5761	561.29
64	0.50119	5834.36	2845.49	6491.27	25.9991	565.035
65	0.39811	6150.19	3215.03	6939.83	27.5985	569.165
66	0.31623	6472.52	3648.21	7429.87	29.4076	573.91
67	0.25119	6903.05	4145.07	8051.94	30.9836	579.335
68	0.19953	7346.75	4721.27	8732.99	32.7262	585.515
69	0.15849	7836.38	5368.12	9498.71	34.4121	592.846
70	0.12589	8305.75	6156.23	10338.5	36.5459	601.331
71	0.1	9026.06	7102.7	11485.6	38.1996	611.466

File: Z_p42_3.txt
Index	Frequency (Hz)	Z' (Ω)	-Z'' (Ω)	Z (Ω)	-Phase (°)	Time (s)
1	1000000	1770.8	814.646	1949.2	24.7046	668.952
2	794330	1852.84	735.887	1993.63	21.6613	671.053
3	630960	1961.4	670.32	2072.78	18.8682	673.139
4	501190	2068.88	608.803	2156.59	16.3975	675.35
5	398110	2158	536.915	2223.79	13.9716	677.461
6	316230	2244.05	483.374	2295.52	12.1559	679.527
7	251190	2275.21	403.467	2310.71	10.0558	681.508
8	199530	2345.11	365.295	2373.39	8.85376	683.579
9	158490	2400.69	326.821	2422.84	7.75235	685.65
10	125890	2444.75	290.533	2461.95	6.77722	687.586
11	100000	2481.88	257.974	2495.25	5.93418	689.732
12	79433	2512.8	229.426	2523.25	5.21681	691.708
13	63096	2537.54	203.988	2545.72	4.59601	693.759
14	50119	2558.64	182.099	2565.12	4.07089	695.89
15	39811	2578.11	163.263	2583.27	3.6235	697.956
16	31623	2593.86	147.643	2598.05	3.25778	699.932
17	25119	2608.29	135.743	2611.82	2.97916	701.928
18	19953	2623.37	126.128	2626.4	2.75258	703.879
19	15849	2635.86	118.606	2638.53	2.5764	705.825
20	12589	2647.5	113.284	2649.92	2.45015	707.756
21	10000	2660.72	109.673	2662.98	2.36035	709.748
22	7943.3	2673.26	107.511	2675.42	2.30304	711.769
23	6309.6	2686.55	106.803	2688.68	2.27657	713.785
24	5011.9	2699.13	106.924	2701.25	2.26854	715.726
25	3981.1	2711.82	108.343	2713.99	2.28787	717.707
26	3162.3	2725.73	110.61	2727.97	2.32377	719.718
27	2511.9	2739.91	113.899	2742.28	2.38043	721.684
28	1995.3	2755.11	118	2757.64	2.45245	723.655
29	1584.9	2769.47	123.134	2772.2	2.54577	725.591
30	1258.9	2785.06	129.495	2788.07	2.66214	729.093
31	1000	2804.03	136.61	2807.35	2.7892	730.969
32	794.33	2820.92	144.787	2824.64	2.9382	733.08
33	630.96	2840.31	154.445	2844.51	3.11244	735.051
34	501.19	2858.91	165.255	2863.68	3.30822	737.027
35	398.11	2883.02	177.756	2888.5	3.52817	738.948
36	316.23	2905.47	192.042	2911.81	3.78155	740.979
37	251.19	2930.83	207.592	2938.17	4.05151	742.955
38	199.53	2957.59	225.324	2966.16	4.35667	744.916
39	158.49	2987.28	244.601	2997.28	4.68098	746.902
40	125.89	3019.34	266.035	3031.04	5.03535	748.973
41	100	3053.95	289.203	3067.61	5.40967	751.029
42	79.433	3092.88	315.042	3108.88	5.81611	753.12
43	63.096	3132.95	343.526	3151.73	6.25745	755.296
44	50.119	3178.67	374.761	3200.69	6.72406	757.437
45	39.811	3229.02	409.833	3254.92	7.23341	768.815
46	31.623	3281.3	447.825	3311.72	7.77159	771.041
47	25.119	3340.14	490.263	3375.93	8.3502	773.257
48	19.953	3402.74	539.044	3445.17	9.00169	775.918
49	15.849	3472.56	592.61	3522.77	9.68452	778.524
50	12.589	3548.06	651.54	3607.38	10.4055	781.175
51	10	3631.77	717.144	3701.9	11.1702	784.146
52	7.9433	3720.92	789.633	3803.78	11.9812	787.127
53	6.3096	3823.32	871.54	3921.39	12.8414	790.203
54	5.0119	3932.83	962.276	4048.84	13.7489	793.229
55	3.9811	4051.39	1064.01	4188.78	14.7152	796.34
56	3.1623	4184.74	1178.81	4347.6	15.7321	799.526
57	2.5119	4329.16	1307.88	4522.41	16.81	802.777
58	1.9953	4486.15	1452.86	4715.54	17.9448	806.033
59	1.5849	4660.99	1617.07	4933.53	19.1335	809.469
60	1.2589	4849.62	1803.37	5174.07	20.3981	813.055
61	1	5059.65	2016.59	5446.71	21.7304	816.957
62	0.79433	5295.53	2259.38	5757.38	23.1059	820.828
63	0.63096	5550.49	2524.3	6097.55	24.4555	825.034
64	0.50119	5823.78	2854.46	6485.7	26.1113	829.53
65	0.39811	6147.77	3227.09	6943.28	27.6959	834.411
66	0.31623	6474.99	3661.77	7438.69	29.4892	839.837
67	0.25119	6887.2	4164.16	8048.21	31.1582	845.958
68	0.19953	7292.79	4706.77	8679.77	32.8382	852.889
69	0.15849	7803.2	5349	9460.53	34.4302	860.9
70	0.12589	8324.58	6125.37	10335.3	36.3463	870.156
71	0.1	8906.84	7103.23	11392.4	38.5725	881.028

File: Z_p43_1.txt
Index	Frequency (Hz)	Z' (Ω)	-Z'' (Ω)	Z (Ω)	-Phase (°)	Time (s)
1	1000000	2022.45	1107.66	2305.91	28.7088	32.6024
2	794330	2152.79	1013.05	2379.23	25.2005	33.9974
3	630960	2314.47	941.624	2498.68	22.1386	35.3424
4	501190	2473.02	874.28	2623.01	19.4699	36.8025
5	398110	2619.98	797.533	2738.68	16.9305	39.1825
6	316230	2752.31	735.042	2848.77	14.9526	40.4325
7	251190	2817.55	634.121	2888.03	12.6837	42.6726
8	199530	2929	585.15	2986.88	11.2977	43.9576
9	158490	3017.47	534.979	3064.53	10.0537	46.1676
10	125890	3096.99	485.554	3134.82	8.91046	47.3377
11	100000	3162.32	439.524	3192.72	7.91272	48.6427
12	79433	3217.98	396.773	3242.34	7.02904	49.9127
13	63096	3267.3	357.485	3286.8	6.24407	51.3177
14	50119	3309.79	321.876	3325.4	5.55454	52.6778
15	39811	3347.81	289.954	3360.34	4.95004	53.9578
16	31623	3380.44	261.617	3390.54	4.42538	55.2328
17	25119	3408.39	238.544	3416.72	4.00346	56.5528
18	19953	3433.37	218.734	3440.33	3.64529	57.8279
19	15849	3457.64	202.212	3463.55	3.347	59.0829
20	12589	3478.99	188.445	3484.09	3.10048	60.3329
21	10000	3501.08	178.086	3505.61	2.9119	61.6229
22	7943.3	3520.43	169.563	3524.51	2.75754	62.9379
23	6309.6	3539.57	163.353	3543.34	2.64236	64.198
24	5011.9	3561.53	159.082	3565.08	2.55753	65.518
25	3981.1	3580.35	156.508	3583.77	2.50298	66.798
26	3162.3	3599.5	155.137	3602.85	2.4679	68.098
27	2511.9	3618.15	155.075	3621.47	2.45421	69.3981
28	1995.3	3637.95	156.502	3641.31	2.46331	70.6631
29	1584.9	3657.66	158.986	3661.12	2.48888	71.8831
30	1258.9	3677.55	162.784	3681.15	2.5345	73.1681
31	1000	3699.85	168.253	3703.67	2.60377	74.4482
32	794.33	3722.93	175.07	3727.05	2.69234	75.8182
33	630.96	3743.3	183.163	3747.78	2.8013	77.0732
34	501.19	3766.16	193.212	3771.12	2.93682	78.4132
35	398.11	3793.58	205.388	3799.14	3.09901	79.6983
36	316.23	3817.39	219.323	3823.68	3.28824	81.0083
37	251.19	3846.9	235.465	3854.1	3.50265	83.0833
38	199.53	3876.36	254.007	3884.67	3.74908	84.3033
39	158.49	3908.68	275.083	3918.34	4.0257	85.6184
40	125.89	3942.98	298.852	3954.29	4.33435	86.9634
41	100	3978.66	325.111	3991.92	4.67147	88.3334
42	79.433	4022.02	354.855	4037.64	5.04204	89.7284
43	63.096	4066.13	387.793	4084.59	5.4479	91.1785
44	50.119	4116.53	425.751	4138.48	5.90481	92.6135
45	39.811	4168.91	466.666	4194.95	6.38707	101.769
46	31.623	4227.51	512.992	4258.52	6.91879	103.374
47	25.119	4288.71	565.596	4325.84	7.51283	105.054
48	19.953	4357.65	626.785	4402.5	8.18503	106.929
49	15.849	4431.4	696.225	4485.76	8.92885	108.854
50	12.589	4511.6	774.171	4577.54	9.73688	110.909
51	10	4602	863.917	4682.39	10.6322	113.174
52	7.9433	4700.58	968.217	4799.26	11.6389	115.499
53	6.3096	4812.69	1087.38	4934	12.7316	117.774
54	5.0119	4930.73	1224.52	5080.51	13.947	120.219
55	3.9811	5069.76	1383.56	5255.16	15.2646	122.584
56	3.1623	5222.17	1565.36	5451.74	16.6862	125.124
57	2.5119	5396.17	1777.49	5681.38	18.2318	127.664
58	1.9953	5587.36	2018.55	5940.8	19.8633	130.344
59	1.5849	5805.18	2296.52	6242.92	21.5836	133.084
60	1.2589	6046.8	2622.97	6591.18	23.4502	135.974
61	1	6330.19	2994.29	7002.65	25.315	140.994
62	0.79433	6649.1	3428.3	7480.89	27.2758	144.084
63	0.63096	7016.13	3912.66	8033.36	29.1469	147.55
64	0.50119	7422.49	4497.55	8678.78	31.2132	151.4
65	0.39811	7882.29	5153.42	9417.44	33.1765	155.64
66	0.31623	8439.2	5963.28	10333.5	35.2457	160.29
67	0.25119	9055.9	6808.05	11329.6	36.9351	165.755
68	0.19953	9797.23	7821.2	12536.2	38.6006	172.03
69	0.15849	10597.2	8996.8	13901.2	40.3307	179.335
70	0.12589	11543.9	10456.3	15575.5	42.1699	187.865
71	0.1	12716.8	11899.6	17416	43.0986	198.01

File: Z_p43_2.txt
Index	Frequency (Hz)	Z' (Ω)	-Z'' (Ω)	Z (Ω)	-Phase (°)	Time (s)
1	1000000	2023.64	1102.79	2304.62	28.5885	318.253
2	794330	2152.08	1009.93	2377.27	25.1397	319.714
3	630960	2314.43	939.518	2497.86	22.0942	321.134
4	501190	2468.61	877.645	2619.98	19.5714	322.649
5	398110	2618.51	796.359	2736.93	16.9159	324.054
6	316230	2751.16	733.166	2847.18	14.9222	325.404
7	251190	2816.24	633.191	2886.55	12.6714	326.714
8	199530	2926.65	584.568	2984.46	11.2956	328.119
9	158490	3016.81	534.057	3063.72	10.0389	329.499
10	125890	3094.24	485.187	3132.04	8.91161	330.794
11	100000	3160.55	439.202	3190.92	7.91136	332.214
12	79433	3217.15	396.622	3241.51	7.02817	333.489
13	63096	3267.14	357.492	3286.64	6.24449	334.854
14	50119	3309.18	322.029	3324.82	5.55816	336.264
15	39811	3347.62	289.894	3360.15	4.94929	337.589
16	31623	3379.67	261.465	3389.77	4.42383	338.864
17	25119	3407.8	238.309	3416.12	4.00022	340.134
18	19953	3432.38	218.492	3439.33	3.64231	341.434
19	15849	3457.99	202.04	3463.89	3.34381	342.729
20	12589	3479.21	188.49	3484.31	3.10103	344.014
21	10000	3498.86	177.736	3503.37	2.90803	345.274
22	7943.3	3520.04	169.436	3524.12	2.75579	346.569
23	6309.6	3539.46	163.426	3543.23	2.64361	347.859
24	5011.9	3557.32	159.048	3560.88	2.55998	349.129
25	3981.1	3578.01	156.384	3581.43	2.50264	350.394
26	3162.3	3596.76	155.024	3600.1	2.46797	351.704
27	2511.9	3616.03	155.162	3619.36	2.45703	353.029
28	1995.3	3636.15	156.548	3639.52	2.46525	354.319
29	1584.9	3657.2	159.237	3660.66	2.49313	355.569
30	1258.9	3677.45	163.034	3681.06	2.53846	356.829
31	1000	3697.67	168.288	3701.5	2.60584	358.114
32	794.33	3719.3	175.083	3723.42	2.69516	359.509
33	630.96	3741.24	183.062	3745.72	2.80129	360.759
34	501.19	3766.44	193.405	3771.41	2.93952	362.069
35	398.11	3792.35	205.259	3797.9	3.09808	363.349
36	316.23	3818.63	219.451	3824.93	3.28908	364.669
37	251.19	3844.25	235.575	3851.47	3.50668	365.959
38	199.53	3874.39	254.15	3882.72	3.75307	367.139
39	158.49	3907.97	275.173	3917.65	4.02774	368.474
40	125.89	3942.37	298.772	3953.67	4.33387	369.839
41	100	3979.72	325.019	3992.97	4.66892	371.219
42	79.433	4022.06	355.219	4037.71	5.04714	372.585
43	63.096	4065.72	387.434	4084.14	5.44344	374.03
44	50.119	4115.36	425.325	4137.28	5.90061	375.475
45	39.811	4168.28	465.921	4194.24	6.37792	384.57
46	31.623	4224.91	513.045	4255.94	6.92372	386.16
47	25.119	4289.96	565.363	4327.05	7.50761	387.79
48	19.953	4357.36	627.047	4402.25	8.18894	389.635
49	15.849	4429.19	695.527	4483.47	8.92442	391.54
50	12.589	4512.03	773.824	4577.9	9.73169	393.55
51	10	4602.89	864.123	4683.3	10.6327	395.82
52	7.9433	4701.76	968.433	4800.46	11.6386	398.09
53	6.3096	4809.08	1086.67	4930.32	12.7328	400.405
54	5.0119	4931.17	1223.96	5080.79	13.9396	403.66
55	3.9811	5070.19	1382.9	5255.4	15.2564	405.995
56	3.1623	5223.45	1565.17	5452.9	16.6805	408.52
57	2.5119	5392.93	1776.1	5677.87	18.2287	411.075
58	1.9953	5584.16	2018.04	5937.62	19.8692	413.765
59	1.5849	5802.31	2295.11	6239.74	21.5813	416.46
60	1.2589	6048.31	2620.2	6591.48	23.4228	419.35
61	1	6328.49	2993.44	7000.75	25.3146	424.37
62	0.79433	6650.51	3420.37	7478.52	27.2169	427.451
63	0.63096	7017.96	3916.26	8036.72	29.163	430.886
64	0.50119	7413.31	4489.35	8666.69	31.1982	434.666
65	0.39811	7880.03	5156.36	9417.16	33.1991	438.801
66	0.31623	8433.21	5957.25	10325.1	35.2375	443.491
67	0.25119	9060.73	6815.48	11337.9	36.9505	448.966
68	0.19953	9787.57	7826.44	12531.9	38.6469	455.201
69	0.15849	10589.3	9017.71	13908.7	40.4172	462.511
70	0.12589	11552.6	10462.9	15586.4	42.1663	471.001
71	0.1	12705.3	11924.2	17424.4	43.1835	481.182

File: Z_p43_3.txt
Index	Frequency (Hz)	Z' (Ω)	-Z'' (Ω)	Z (Ω)	-Phase (°)	Time (s)
1	1000000	2024.82	1101.2	2304.89	28.5396	575.27
2	794330	2147.94	1010.4	2373.72	25.1924	577.475
3	630960	2314.05	939.637	2497.55	22.1	579.62
4	501190	2473.13	874.576	2623.21	19.4752	581.975
5	398110	2619.97	796.3	2738.31	16.9058	584.07
6	316230	2752.17	734.165	2848.41	14.9363	586.165
7	251190	2817.89	633.008	2888.12	12.6607	588.285
8	199530	2926.86	584.98	2984.75	11.3026	590.45
9	158490	3019.41	534.401	3066.34	10.0368	592.52
10	125890	3097.81	486.381	3135.76	8.92304	594.52
11	100000	3162.47	439.698	3192.89	7.91546	596.76
12	79433	3219.05	396.958	3243.44	7.02995	598.866
13	63096	3268.64	357.908	3288.17	6.24886	600.946
14	50119	3309.74	322.09	3325.37	5.55829	603.121
15	39811	3348.42	290.198	3360.97	4.95329	605.281
16	31623	3380.65	261.714	3390.77	4.42674	607.331
17	25119	3406.92	238.516	3415.25	4.0047	609.281
18	19953	3434.92	218.872	3441.88	3.64595	611.291
19	15849	3458.56	202.324	3464.48	3.34796	613.401
20	12589	3480.91	188.837	3486.03	3.10521	615.481
21	10000	3501.33	177.866	3505.84	2.90809	617.556
22	7943.3	3522.19	169.737	3526.28	2.759	619.626
23	6309.6	3541.29	163.593	3545.07	2.64494	621.631
24	5011.9	3560.71	159.203	3564.27	2.56005	623.786
25	3981.1	3580.79	156.599	3584.21	2.50413	625.841
26	3162.3	3599.06	155.288	3602.41	2.47059	627.886
27	2511.9	3618.31	155.274	3621.65	2.45725	629.846
28	1995.3	3638.22	156.692	3641.59	2.46611	631.816
29	1584.9	3659.12	159.31	3662.59	2.49296	633.861
30	1258.9	3679.38	162.822	3682.98	2.53382	635.996
31	1000	3700.56	168.442	3704.4	2.60618	638.001
32	794.33	3722.73	175.465	3726.86	2.69855	640.156
33	630.96	3746.21	183.587	3750.71	2.8056	642.196
34	501.19	3769.29	193.534	3774.26	2.93927	644.236
35	398.11	3793.61	205.499	3799.18	3.10066	646.291
36	316.23	3819.67	219.412	3825.97	3.28761	648.316
37	251.19	3847.96	235.687	3855.17	3.50498	650.446
38	199.53	3878.58	254.328	3886.91	3.75164	652.507
39	158.49	3908.81	275.33	3918.5	4.02916	654.682
40	125.89	3943.16	299.105	3954.49	4.33781	656.777
41	100	3980.18	325.448	3993.46	4.67451	658.832
42	79.433	4024.06	355.377	4039.72	5.04688	661.012
43	63.096	4070.05	388.443	4088.55	5.45176	663.302
44	50.119	4118.55	425.41	4140.47	5.89723	665.422
45	39.811	4170.07	467.106	4196.15	6.39128	675.187
46	31.623	4230.44	513.661	4261.51	6.92297	677.632
47	25.119	4291.55	566.438	4328.77	7.51896	679.942
48	19.953	4360.05	627.809	4405.02	8.19378	682.637
49	15.849	4433.86	696.785	4488.27	8.93104	685.367
50	12.589	4514.79	775.662	4580.93	9.74852	688.197
51	10	4605.56	866.196	4686.31	10.6515	691.322
52	7.9433	4704.7	969.833	4803.63	11.6479	694.362
53	6.3096	4816.15	1090.37	4938.03	12.7566	697.417
54	5.0119	4937.96	1226.78	5088.07	13.952	700.477
55	3.9811	5074.54	1385.06	5260.16	15.2667	703.597
56	3.1623	5228.67	1569.82	5459.24	16.7115	706.798
57	2.5119	5401.75	1779.62	5687.35	18.2345	710.113
58	1.9953	5592.28	2021.73	5946.51	19.876	713.513
59	1.5849	5810.55	2300.13	6249.24	21.5963	717.128
60	1.2589	6056.49	2622.75	6599.99	23.4149	720.773
61	1	6338.81	2999.6	7012.71	25.3241	727.248
62	0.79433	6659.31	3426.39	7489.09	27.227	731.088
63	0.63096	7019.39	3930.11	8044.72	29.2442	735.393
64	0.50119	7442.66	4507.26	8701.07	31.199	740.033
65	0.39811	7920.03	5172.48	9459.46	33.1481	744.963
66	0.31623	8447.73	5969.4	10344	35.2461	750.478
67	0.25119	9108.79	6862.85	11404.8	36.9955	756.613
68	0.19953	9774.28	7860.29	12542.8	38.8056	763.624
69	0.15849	10636	9007.55	13937.7	40.2611	771.704
70	0.12589	11644.1	10444.4	15642	41.8912	782.264
71	0.1	12652.3	12071.3	17487	43.6539	799.524

File: Z_p44_1.txt
Index	Frequency (Hz)	Z' (Ω)	-Z'' (Ω)	Z (Ω)	-Phase (°)	Time (s)
1	1000000	2042.99	1061.39	2302.25	27.4531	21.0162
2	794330	2163.26	959.871	2366.65	23.9276	22.3712
3	630960	2317.58	880.587	2479.23	20.8048	23.7712
4	501190	2466.27	802.197	2593.46	18.018	25.2562
5	398110	2591.35	718.591	2689.14	15.4989	26.6513
6	316230	2709.51	651.554	2786.75	13.5212	28.0213
7	251190	2758.9	548.63	2812.92	11.247	29.3163
8	199530	2854.25	496.755	2897.16	9.87289	30.7163
9	158490	2928.47	444.401	2961.99	8.62891	32.0864
10	125890	2988.9	396.798	3015.13	7.5622	33.3464
11	100000	3038.79	352.303	3059.14	6.61308	34.7314
12	79433	3080.7	312.97	3096.56	5.80081	36.0364
13	63096	3116.99	278.263	3129.39	5.10144	37.4365
14	50119	3144.49	247.581	3154.22	4.50189	38.8765
15	39811	3172.31	221.435	3180.03	3.99292	40.1965
16	31623	3195.04	199.137	3201.24	3.56644	41.5015
17	25119	3215.11	180.672	3220.18	3.21633	42.7566
18	19953	3234.38	165.679	3238.62	2.93238	44.0416
19	15849	3250.87	153.377	3254.49	2.70122	45.3616
20	12589	3266.84	143.517	3269.99	2.51547	46.6866
21	10000	3281.64	135.696	3284.44	2.36783	47.9867
22	7943.3	3299.88	130.175	3302.44	2.25906	49.2967
23	6309.6	3313.61	125.726	3315.99	2.17289	50.5667
24	5011.9	3330.2	122.548	3332.45	2.10749	51.8467
25	3981.1	3345.17	120.274	3347.34	2.05915	53.1468
26	3162.3	3361.36	118.994	3363.46	2.02746	54.4218
27	2511.9	3374.96	118.406	3377.04	2.00932	55.7318
28	1995.3	3392.09	118.538	3394.16	2.00141	56.9918
29	1584.9	3407.87	119.104	3409.95	2.00166	58.2518
30	1258.9	3423.83	120.449	3425.95	2.0148	59.5419
31	1000	3439.92	121.973	3442.08	2.03076	60.8869
32	794.33	3456.67	124.241	3458.9	2.05846	62.2919
33	630.96	3473.44	127.245	3475.77	2.09801	63.5719
34	501.19	3491.26	131.216	3493.73	2.1524	64.872
35	398.11	3509.85	135.771	3512.47	2.21527	66.122
36	316.23	3527.77	141.195	3530.6	2.29198	67.382
37	251.19	3546.62	147.937	3549.7	2.38854	68.717
38	199.53	3564.28	155.575	3567.68	2.49928	70.0771
39	158.49	3583.78	164.18	3587.53	2.623	71.3321
40	125.89	3606.22	174.204	3610.43	2.76561	72.6921
41	100	3628.09	185.632	3632.84	2.92899	74.0371
42	79.433	3652.34	198.432	3657.72	3.10983	75.4322
43	63.096	3680.18	213.038	3686.34	3.31303	76.8572
44	50.119	3709.28	228.626	3716.32	3.52703	78.2622
45	39.811	3740.59	245.655	3748.65	3.75737	87.3324
46	31.623	3774.55	263.876	3783.77	3.999	89.2074
47	25.119	3811.03	283.516	3821.56	4.2546	90.8624
48	19.953	3850.68	306.21	3862.83	4.54666	92.7925
49	15.849	3891.51	328.597	3905.36	4.82658	94.7975
50	12.589	3937.27	352.874	3953.05	5.12139	96.8026
51	10	3987.12	379.888	4005.18	5.44264	99.0626
52	7.9433	4034.74	407.473	4055.26	5.76681	101.578
53	6.3096	4090.21	439.517	4113.75	6.13324	103.878
54	5.0119	4144.37	474.725	4171.47	6.53457	106.203
55	3.9811	4204.84	513.77	4236.11	6.96617	108.723
56	3.1623	4267.44	559.975	4304.02	7.47567	111.278
57	2.5119	4330.59	613.814	4373.87	8.06732	113.848
58	1.9953	4399.14	674.195	4450.51	8.71313	116.533
59	1.5849	4475.06	745.794	4536.78	9.4617	119.273
60	1.2589	4554.13	832.385	4629.58	10.3579	122.043
61	1	4636.75	933.729	4729.83	11.3857	125.348
62	0.79433	4735.44	1054.2	4851.36	12.5505	128.508
63	0.63096	4824.53	1196.06	4970.58	13.9236	131.958
64	0.50119	4939.7	1370.04	5126.18	15.5015	135.808
65	0.39811	5057.73	1585.38	5300.38	17.404	139.958
66	0.31623	5200.45	1820.96	5510.04	19.298	144.723
67	0.25119	5346.91	2147.6	5762.08	21.883	150.169
68	0.19953	5521.42	2502.89	6062.22	24.3851	156.374
69	0.15849	5746.46	2931.89	6451.18	27.0311	163.594
70	0.12589	6011	3387.24	6899.68	29.4015	172.119
71	0.1	6223.76	4033.42	7416.45	32.946	182.294