Folder: Streamlit_cement_impedance/data/20200205 (part 2)

File: OCP_p29_1.txt
Time (s);WE(1).Potential (V);Corrected time (s);Index;dWE(1).Potential/dt (V/s);OCP value (V)
4.3648;-0.00397644;0;1;0;-0.00436189
4.6648;-0.00398865;0.3;4;9.66481e-05;
4.9648;-0.00399475;0.6;7;-0.000203446;
5.2648;-0.00398254;0.9;10;0.000269578;
5.5648;-0.00400696;1.2;13;-0.000539143;
5.8648;-0.0039917;1.5;16;0.000233962;
6.1648;-0.00400391;1.8;19;-0.000544227;
6.4648;-0.00399475;2.1;22;0.000442507;
6.7648;-0.00400391;2.4;25;0.000244146;
7.0648;-0.00401611;2.7;28;0.000325515;
7.3648;-0.00401306;3;31;-0.000218703;
7.6648;-0.00402222;3.3;34;-3.05164e-05;
7.9648;-0.00402527;3.6;37;-0.000605253;
8.2648;-0.00402527;3.9;40;9.15584e-05;
8.5648;-0.00402832;4.2;43;0.000218703;
8.8648;-0.00404053;4.5;46;-0.000178013;
9.1648;-0.00401917;4.8;49;0.000254304;
9.4648;-0.00403442;5.1;52;-5.08658e-06;
9.7648;-0.00403137;5.4;55;-0.000172942;
10.0648;-0.00403748;5.7;58;-0.00020346;
10.3648;-0.00404968;6;61;-0.000132234;
10.6648;-0.00404053;6.3;64;0.000305187;
10.9648;-0.00404663;6.6;67;-0.000295003;
11.2648;-0.00406494;6.9;70;-0.000564571;
11.5648;-0.00405273;7.2;73;0.000452684;
11.8648;-0.00406494;7.5;76;-0.000361116;
12.1648;-0.00406799;7.8;79;-1.0184e-05;
12.4648;-0.00407104;8.1;82;-0.000422161;
12.7648;-0.00405884;8.4;85;0.000269578;
13.0648;-0.0040802;8.7;88;-0.000391646;
13.3648;-0.00408325;9;91;8.13775e-05;
13.6648;-0.00406494;9.3;94;0.000564582;
13.9648;-0.00408936;9.6;97;-0.000310256;
14.2648;-0.0040863;9.9;100;-0.000172922;
14.5648;-0.00408936;10.2;103;8.13759e-05;
14.8648;-0.0040802;10.5;106;0.000213627;
15.1648;-0.00409241;10.8;109;5.08347e-06;
15.4648;-0.00408936;11.1;112;-0.000264487;
15.7648;-0.00410156;11.4;115;-0.000361124;
16.0648;-0.0040863;11.7;118;0.000325532;
16.3648;-0.00410767;12;121;0.000111892;
16.6648;-0.00410767;12.3;124;-0.000183114;
16.9648;-0.00410461;12.6;127;5.59384e-05;
17.2648;-0.00411377;12.9;130;-0.000305176;
17.5648;-0.00411072;13.2;133;0.000101727;
17.8648;-0.00411377;13.5;136;3.56123e-05;
18.1648;-0.00411377;13.8;139;-9.15475e-05;
18.4648;-0.00411377;14.1;142;0.000137328;
18.7648;-0.00412292;14.4;145;-0.000350965;
19.0648;-0.00412598;14.7;148;-1.01669e-05;
19.3648;-0.00412598;15;151;-0.0001831;
19.6648;-0.00412598;15.3;154;-0.0001831;
19.9648;-0.00412903;15.6;157;-0.000239054;
20.2648;-0.00412903;15.9;160;-0.000183109;
20.5648;-0.00413208;16.2;163;-0.000147489;
20.8648;-0.00413513;16.5;166;-0.000193271;
21.1648;-0.00414124;16.8;169;-0.000340771;
21.4648;-0.00415039;17.1;172;-0.000350949;
21.7648;-0.00413818;17.4;175;-5.08751e-05;
22.0648;-0.00414124;17.7;178;-0.0001475;
22.3648;-0.0041626;18;181;-0.00016276;
22.6648;-0.00414734;18.3;184;5.09434e-06;
22.9648;-0.00414124;18.6;187;0.000111899;
23.2648;-0.00414734;18.9;190;7.12136e-05;
23.5648;-0.00415039;19.2;193;0.00031027;
23.8648;-0.00415955;19.5;196;-0.000213627;
24.1648;-0.0041626;19.8;199;-1.01685e-05;
24.4648;-0.00415649;20.1;202;0.000295009;
24.7648;-0.0041687;20.4;205;-0.000223792;
25.0648;-0.0041687;20.7;208;-0.000228885;
25.3648;-0.00416565;21;211;1.01732e-05;
25.6648;-0.00416565;21.3;214;-0.000137333;
25.9648;-0.00417786;21.6;217;-0.000452673;
26.2648;-0.00417786;21.9;220;3.10441e-09;
26.5648;-0.00418701;22.2;223;-0.000213618;
26.8648;-0.00417786;22.5;226;0.000305187;
27.1648;-0.00418396;22.8;229;0.000300088;
27.4648;-0.00418701;23.1;232;0.000218709;
27.7648;-0.00418091;23.4;235;6.61286e-05;
28.0648;-0.00418396;23.7;238;-1.01887e-05;
28.3648;-0.00418701;24;241;3.56107e-05;
28.6648;-0.00418701;24.3;244;0.000595089;
28.9648;-0.00419922;24.6;247;-4.06942e-05;
29.2648;-0.00419312;24.9;250;0.000157682;
29.5648;-0.00419617;25.2;253;0.000310264;
29.8648;-0.00420227;25.5;256;-0.000157673;
30.1648;-0.00419312;25.8;259;0.000167848;
30.4648;-0.00419617;26.1;262;0.000264487;
30.7648;-0.00421143;26.4;265;0.000223803;
31.0648;-0.00420837;26.7;268;-0.000264477;
31.3648;-0.00420837;27;271;-0.000137317;
31.6648;-0.00420532;27.3;274;0.000239049;
31.9648;-0.00421753;27.6;277;9.66357e-05;
32.2648;-0.00422363;27.9;280;-0.000111897;
32.5648;-0.00422668;28.2;283;-0.000147506;
32.8648;-0.00421448;28.5;286;0.000361118;
33.1648;-0.00422668;28.8;289;-8.64672e-05;
33.4648;-0.00422668;29.1;292;-0.000228876;
33.7648;-0.00422974;29.4;295;-0.000147503;
34.0648;-0.00422363;29.7;298;6.61271e-05;
34.3648;-0.00423279;30;301;0.000473029;
34.6648;-0.00422668;30.3;304;0.000111894;
34.9648;-0.004245;30.6;307;-6.10327e-05;
35.2648;-0.00422974;30.9;310;0.000142402;
35.5648;-0.00423584;31.2;313;0.000116984;
35.8648;-0.0042511;31.5;316;-0.000325527;
36.1648;-0.00424805;31.8;319;-8.13713e-05;
36.4648;-0.00424805;32.1;322;4.65662e-09;
36.7648;-0.004245;32.4;325;0.000284834;
37.0648;-0.00424194;32.7;328;0.000330617;
37.3648;-0.00425415;33;331;5.08751e-05;
37.6648;-0.0042572;33.3;334;-0.000193278;
37.9648;-0.00425415;33.6;337;-0.000172922;
38.2648;-0.00426025;33.9;340;-0.000386558;
38.5648;-0.004245;34.2;343;0.000325513;
38.8648;-0.004245;34.5;346;0.000228879;
39.1648;-0.0042511;34.8;349;0.000345872;
39.4648;-0.0042572;35.1;352;2.54329e-05;
39.7648;-0.0042572;35.4;355;4.57777e-05;
40.0648;-0.0042511;35.7;358;-7.1209e-05;
40.3648;-0.00427551;36;361;-0.00031026;
40.6648;-0.00426941;36.3;364;-0.000208533;
40.9648;-0.0042572;36.6;367;0.000315355;
41.2648;-0.00427246;36.9;370;-0.000279751;
41.5648;-0.00426941;37.2;373;0.000376385;
41.8648;-0.00427246;37.5;376;3.56045e-05;
42.1648;-0.00428162;37.8;379;-0.000350954;
42.4648;-0.00427856;38.1;382;-0.000127155;
42.7648;-0.00428162;38.4;385;0.000127143;
43.0648;-0.00427856;38.7;388;-0.000172927;
43.3648;-0.00427246;39;391;2.03448e-05;
43.6648;-0.00428467;39.3;394;-8.64703e-05;
43.9648;-0.00427856;39.6;397;-0.000300082;
44.2648;-0.00429077;39.9;400;-0.00026957;
44.5648;-0.00429077;40.2;403;4.57745e-05;
44.8648;-0.00428467;40.5;406;0.000386558;
45.1648;-0.00428467;40.8;409;4.5787e-05;
45.4648;-0.00427856;41.1;412;2.03432e-05;
45.7648;-0.00429688;41.4;415;0.000167842;
46.0648;-0.00429993;41.7;418;-0.000284834;
46.3648;-0.00429688;42;421;-8.13759e-05;
46.6648;-0.00429077;42.3;424;0.000157668;
46.9648;-0.00429688;42.6;427;-0.000432336;
47.2648;-0.00429077;42.9;430;0.00038655;
47.5648;-0.00430298;43.2;433;-0.000178022;
47.8648;-0.00430908;43.5;436;0.000345875;
48.1648;-0.00429382;43.8;439;0.000233959;
48.4648;-0.00430603;44.1;442;-0.00026957;
48.7648;-0.00431519;44.4;445;-7.62847e-05;
49.0648;-0.00430603;44.7;448;-0.00024414;
49.3648;-0.00432129;45;451;-0.000783283;
49.6648;-0.00430908;45.3;454;-0.000279748;
49.9648;-0.00431824;45.6;457;-0.000167838;
50.2648;-0.00431519;45.9;460;0.000330614;
50.5648;-0.00432434;46.2;463;-0.000579839;
50.8648;-0.00432434;46.5;466;-0.000137328;
51.1648;-0.00431213;46.8;469;-5.09279e-06;
51.4648;-0.00432434;47.1;472;5.09279e-06;
51.7648;-0.00431213;47.4;475;0.000269573;
52.0648;-0.00431824;47.7;478;7.12043e-05;
52.3648;-0.00431519;48;481;5.59601e-05;
52.6648;-0.00432434;48.3;484;1.52644e-05;
52.9648;-0.00431824;48.6;487;0.000478109;
53.2648;-0.00433044;48.9;490;0.000233967;
53.5648;-0.00431824;49.2;493;0.000361121;
53.8648;-0.0043396;49.5;496;-0.000391646;
54.1648;-0.00434265;49.8;499;0.000447586;
54.4648;-0.00433655;50.1;502;-0.000208534;
54.7648;-0.00434265;50.4;505;-0.000111911;
55.0648;-0.0043396;50.7;508;-0.00021871;
55.3648;-0.00433655;51;511;-0.000264497;
55.6648;-0.0043457;51.3;514;-0.000213618;
55.9648;-0.0043396;51.6;517;0.000478107;
56.2648;-0.00435486;51.9;520;-0.000508622;
56.5648;-0.00434875;52.2;523;0.000203449;
56.8648;-0.00435486;52.5;526;2.54375e-05;
57.1648;-0.00433655;52.8;529;0.000747677;
57.4648;-0.00434265;53.1;532;0.000208526;
57.7648;-0.00434265;53.4;535;-0.000137325;
58.0648;-0.0043457;53.7;538;-5.59399e-05;
58.3648;-0.00434875;54;541;8.13821e-05;
58.6648;-0.00435486;54.3;544;-0.000432333;
58.9648;-0.00435791;54.6;547;-0.000376393;
59.2648;-0.00436096;54.9;550;-0.000284822;
59.5648;-0.00434875;55.2;553;8.64548e-05;
59.8648;-0.00436096;55.5;556;-0.000132236;
60.1648;-0.00435181;55.8;559;0.000213611;
60.4648;-0.00436401;56.1;562;-0.000361121;
60.7648;-0.00435791;56.4;565;0.000249222;
61.0648;-0.00436707;56.7;568;-7.62987e-05;
61.3648;-0.00435181;57;571;0.000188199;
61.6648;-0.00435181;57.3;574;-9.15584e-05;
61.9648;-0.00435791;57.6;577;-0.000111911;
62.2648;-0.00437927;57.9;580;-0.000254312;
62.5648;-0.00437622;58.2;583;-0.000264477;
62.8648;-0.00436707;58.5;586;0.000122069;
63.1648;-0.00437012;58.8;589;-5.59446e-05;
63.4648;-0.00437012;59.1;592;-1.55221e-09;
63.7648;-0.00436401;59.4;595;0.000706985;
64.0648;-0.00437317;59.7;598;-0.000167843;
64.2648;-0.00437622;59.9;600;1.52582e-05;

File: OCP_p30_1.txt
Time (s)	WE(1).Potential (V)	Corrected time (s)	Index	dWE(1).Potential/dt (V/s)	OCP value (V)
1.25574	0.0052063	0	1	0	0.00534267
1.55574	0.0052002	0.3	4	-0.000295015
1.85574	0.00520325	0.6	7	0.000101722
2.15574	0.00520325	0.9	10	-0.000228876
2.45574	0.00521851	1.2	13	9.66278e-05
2.75574	0.00521545	1.5	16	0.00072224
3.05574	0.00520935	1.8	19	-2.03432e-05
3.35574	0.0052002	2.1	22	-0.000259403
3.65574	0.00520325	2.4	25	0.00028482
3.95574	0.00520935	2.7	28	2.03463e-05
4.25574	0.00520935	3	31	-0.000228893
4.55574	0.00519714	3.3	34	-0.000223795
4.85574	0.0052002	3.6	37	-0.000172929
5.15574	0.0052002	3.9	40	-0.000228885
5.45574	0.0052002	4.2	43	0.000137336
5.75574	0.0052063	4.5	46	0.000157676
6.05574	0.00519714	4.8	49	-0.000213624
6.35574	0.0052063	5.1	52	-0.000198361
6.65574	0.00520325	5.4	55	-0.00019329
6.95574	0.00520935	5.7	58	6.61177e-05
7.25574	0.00520935	6	61	0.00036621
7.55574	0.00521545	6.3	64	-2.54298e-05
7.85574	0.00520935	6.6	67	-0.000203454
8.15574	0.0052063	6.9	70	-0.000330605
8.45574	0.00522461	7.2	73	0.000289905
8.75574	0.00519409	7.5	76	-0.000284834
9.05574	0.00520325	7.8	79	3.05241e-05
9.35574	0.00522156	8.1	82	-0.000167843
9.65574	0.00521851	8.4	85	-0.000239061
9.95574	0.00520935	8.7	88	1.52675e-05
10.2557	0.00523071	9	91	0.000162753
10.5557	0.00522461	9.3	94	0.000437414
10.8557	0.00521851	9.6	97	-0.000157678
11.1557	0.00523071	9.9	100	-5.08688e-05
11.4557	0.00521545	10.2	103	-0.000279748
11.7557	0.0052063	10.5	106	0.000152597
12.0557	0.00522766	10.8	109	0.000208539
12.3557	0.00521545	11.1	112	-0.000315347
12.6557	0.00523071	11.4	115	0.000462839
12.9557	0.0052124	11.7	118	-1.5252e-05
13.2557	0.0052124	12	121	-0.000228871
13.5557	0.00522461	12.3	124	-0.000462844
13.8557	0.00523071	12.6	127	6.61254e-05
14.1557	0.00522461	12.9	130	0.00011699
14.4557	0.00522156	13.2	133	-5.59523e-05
14.7557	0.00521545	13.5	136	-0.000157676
15.0557	0.00522461	13.8	139	0.000213617
15.3557	0.00523071	14.1	142	6.61192e-05
15.6557	0.00523376	14.4	145	0.00019329
15.9557	0.00523376	14.7	148	-0.000137327
16.2557	0.00521851	15	151	-0.000325522
16.5557	0.00523987	15.3	154	2.54251e-05
16.8557	0.00523071	15.6	157	0.000244145
17.1557	0.00523682	15.9	160	-7.12058e-05
17.4557	0.00523987	16.2	163	-0.000172925
17.7557	0.00523987	16.5	166	-4.57823e-05
18.0557	0.00523987	16.8	169	-4.57823e-05
18.3557	0.00522766	17.1	172	-0.000361116
18.6557	0.00523682	17.4	175	-0.000244132
18.9557	0.00524292	17.7	178	0.000157676
19.2557	0.00524292	18	181	0.000183109
19.5557	0.00523376	18.3	184	1.52597e-05
19.8557	0.00525208	18.6	187	1.52675e-05
20.1557	0.00524292	18.9	190	-0.000167846
20.4557	0.00523071	19.2	193	0.000233959
20.7557	0.00524292	19.5	196	0.000269571
21.0557	0.00525818	19.8	199	0.000279743
21.3557	0.00525513	20.1	202	0.000218698
21.6557	0.00524597	20.4	205	-0.000122076
21.9557	0.00526123	20.7	208	0.000600178
22.2557	0.00523987	21	211	-0.000116983
22.5557	0.00524292	21.3	214	0.00037638
22.8557	0.00525818	21.6	217	5.08611e-05
23.1557	0.00524292	21.9	220	-0.000142413
23.4557	0.00525513	22.2	223	0.000269573
23.7557	0.00525208	22.5	226	-0.000330605
24.0557	0.00526123	22.8	229	7.62908e-05
24.3557	0.00525208	23.1	232	-0.000213624
24.6557	0.00523987	23.4	235	-0.000315343
24.9557	0.00524292	23.7	238	-0.000356024
25.2557	0.00526733	24	241	0.000493363
25.5557	0.00524597	24.3	244	-0.000254322
25.8557	0.00525208	24.6	247	0.00020346
26.1557	0.00525818	24.9	250	2.03432e-05
26.4557	0.00525208	25.2	253	0.000116997
26.7557	0.00525818	25.5	256	0.000295009
27.0557	0.00524597	25.8	259	-0.000223805
27.3557	0.00525208	26.1	262	-0.000483192
27.6557	0.00526123	26.4	265	3.05194e-05
27.9557	0.00525818	26.7	268	0.000172937
28.2557	0.00525818	27	271	0.000366213
28.5557	0.00524292	27.3	274	-0.000691726
28.8557	0.00524597	27.6	277	-0.000584922
29.1557	0.00524902	27.9	280	-8.13758e-05
29.4557	0.00526123	28.2	283	-0.000142424
29.7557	0.00525818	28.5	286	3.56107e-05
30.0557	0.00525818	28.8	289	-9.15505e-05
30.3557	0.00525818	29.1	292	-0.000228883
30.6557	0.00526428	29.4	295	-2.54329e-05
30.9557	0.00526428	29.7	298	0.000228876
31.2557	0.00527344	30	301	0.000259404
31.5557	0.00526428	30.3	304	-0.000396732
31.8557	0.00526733	30.6	307	0.000147509
32.1557	0.00526733	30.9	310	-0.000183107
32.4557	0.00525818	31.2	313	-0.000442512
32.7557	0.00526428	31.5	316	-0.000162772
33.0557	0.00526733	31.8	319	0.000239058
33.3557	0.00526733	32.1	322	0.00013733
33.6557	0.00527649	32.4	325	7.6297e-05
33.9557	0.00526428	32.7	328	-0.000223794
34.2557	0.00527039	33	331	-0.000208535
34.5557	0.00528564	33.3	334	0.000508628
34.8557	0.00527344	33.6	337	-0.000269573
35.1557	0.00527344	33.9	340	-0.000137328
35.4557	0.00528564	34.2	343	0.000315338
35.7557	0.00527649	34.5	346	-0.000122076
36.0557	0.00527039	34.8	349	-0.000478119
36.3557	0.00528564	35.1	352	0.000371301
36.6557	0.00528259	35.4	355	-0.000101724
36.9557	0.00527344	35.7	358	-0.000305185
37.2557	0.00529175	36	361	6.10311e-05
37.5557	0.00527649	36.3	364	0.000315355
37.8557	0.00527344	36.6	367	-0.000284826
38.1557	0.0052887	36.9	370	0.000233971
38.4557	0.00527954	37.2	373	-0.000259393
38.7557	0.00528259	37.5	376	1.01762e-05
39.0557	0.00529175	37.8	379	-6.10296e-05
39.3557	0.00528564	38.1	382	0.000162755
39.6557	0.00528259	38.4	385	-0.000376377
39.9557	0.0052887	38.7	388	-0.000208539
40.2557	0.0053009	39	391	0.000406899
40.5557	0.0052948	39.3	394	-2.03385e-05
40.8557	0.00528564	39.6	397	-0.000213627
41.1557	0.0053009	39.9	400	5.08036e-06
41.4557	0.00528259	40.2	403	-6.10373e-05
41.7557	0.00529785	40.5	406	-0.000178016
42.0557	0.00529785	40.8	409	0.000183114
42.3557	0.00530396	41.1	412	0.000111898
42.6557	0.00529785	41.4	415	2.54422e-05
42.9557	0.0053009	41.7	418	-8.13821e-05
43.2557	0.0052887	42	421	-4.0691e-05
43.5557	0.00530701	42.3	424	0.000335684
43.8557	0.00531006	42.6	427	0.000101722
44.1557	0.00529785	42.9	430	5.08502e-06
44.4557	0.0052887	43.2	433	-0.000122075
44.7557	0.00530701	43.5	436	0.000244129
45.0557	0.00529175	43.8	439	4.06895e-05
45.3557	0.00530396	44.1	442	-5.08533e-05
45.6557	0.00530396	44.4	445	-9.15568e-05
45.9557	0.00531921	44.7	448	0.000325527
46.2557	0.00530396	45	451	-5.08642e-05
46.5557	0.00530701	45.3	454	0.000239038
46.8557	0.00531006	45.6	457	0.00028482
47.1557	0.00531921	45.9	460	0.000350966
47.4557	0.00532532	46.2	463	-7.12167e-05
47.7557	0.00531311	46.5	466	0.000508632
48.0557	0.00531616	46.8	469	0.000376388
48.3557	0.0053009	47.1	472	-0.000371298
48.6557	0.00531921	47.4	475	0.000106818
48.9557	0.00530396	47.7	478	-0.000279746
49.2557	0.00531311	48	481	-6.10218e-05
49.5557	0.00530701	48.3	484	2.54282e-05
49.8557	0.00531311	48.6	487	0.000569674
50.1557	0.00531616	48.9	490	0.000101728
50.4557	0.00532532	49.2	493	0.000167844
50.7557	0.00532532	49.5	496	0.000137333
51.0557	0.00531311	49.8	499	0.000279751
51.3557	0.00531311	50.1	502	0.000366211
51.6557	0.00531616	50.4	505	0.000376382
51.9557	0.00531311	50.7	508	-1.01561e-05
52.2557	0.00532227	51	511	-1.52582e-05
52.5557	0.00531616	51.3	514	-0.000295009
52.8557	0.00533142	51.6	517	0.000600171
53.1557	0.00534363	51.9	520	0.000223805
53.4557	0.00533142	52.2	523	0.000417062
53.7557	0.00533752	52.5	526	0.000661203
54.0557	0.00534363	52.8	529	0.000203454
54.3557	0.00534058	53.1	532	8.13758e-05
54.6557	0.00532837	53.4	535	0.000233967
54.9557	0.00534363	53.7	538	0.000554407
55.2557	0.00533447	54	541	-0.000122062
55.5557	0.00533752	54.3	544	0.000147495
55.8557	0.00532227	54.6	547	-5.09433e-06
56.1557	0.00534058	54.9	550	0.000244152
56.4557	0.00534058	55.2	553	9.1549e-05
56.7557	0.00533142	55.5	556	-0.000488292
57.0557	0.00533142	55.8	559	-0.000595089
57.3557	0.00533752	56.1	562	0.000478105
57.6557	0.00533752	56.4	565	-4.57869e-05
57.9557	0.00533752	56.7	568	-0.000137336
58.2557	0.00534363	57	571	-0.00011699
58.5557	0.00534668	57.3	574	-8.13821e-05
58.8557	0.00534668	57.6	577	-0.000457762
59.1557	0.00534668	57.9	580	-0.000503546
59.4557	0.00535278	58.2	583	0.000157668
59.7557	0.00534668	58.5	586	0.000116983
60.0557	0.00534058	58.8	589	2.54329e-05
60.3557	0.00534973	59.1	592	0.000350966
60.6557	0.00534363	59.4	595	-0.00024923
60.9557	0.00534668	59.7	598	-8.13758e-05
61.1557	0.00535583	59.9	600	0.000167851

File: OCP_p31_1.txt
Time (s)	WE(1).Potential (V)	Corrected time (s)	Index	dWE(1).Potential/dt (V/s)	OCP value (V)
1.36674	-0.0344086	0	1	0	-0.0325977
1.66674	-0.0343933	0.3	4	-8.64764e-05
1.96674	-0.0343567	0.6	7	0.000259379
2.26674	-0.0343201	0.9	10	0.000213658
2.56674	-0.0342804	1.2	13	0.000269599
2.86674	-0.0342468	1.5	16	6.61363e-05
3.16674	-0.0342285	1.8	19	0.000335698
3.46674	-0.0342072	2.1	22	-0.000249259
3.76674	-0.0341766	2.4	25	0.000422212
4.06674	-0.0341461	2.7	28	0.000101638
4.36674	-0.0341003	3	31	0.0001526
4.66674	-0.0340912	3.3	34	0.000122103
4.96674	-0.0340607	3.6	37	5.59166e-05
5.26674	-0.0340393	3.9	40	0.000300097
5.56674	-0.0340057	4.2	43	0.000294906
5.86674	-0.0339966	4.5	46	3.04729e-05
6.16674	-0.0339874	4.8	49	-0.000106841
6.46674	-0.0339691	5.1	52	0.000473037
6.76674	-0.0339294	5.4	55	0.000498382
7.06674	-0.0339172	5.7	58	8.64019e-05
7.36674	-0.0338959	6	61	-0.000203438
7.66674	-0.0338745	6.3	64	0.000529016
7.96674	-0.0338593	6.6	67	0.000188102
8.26674	-0.0338257	6.9	70	-2.54313e-05
8.56674	-0.0338257	7.2	73	4.5759e-05
8.86674	-0.0337982	7.5	76	0.000183197
9.16674	-0.033786	7.8	79	-0.000142455
9.46674	-0.0337708	8.1	82	9.65968e-05
9.76674	-0.0337494	8.4	85	0.000254301
10.0667	-0.0337372	8.7	88	0.000406913
10.3667	-0.0337067	9	91	-3.56138e-05
10.6667	-0.0337067	9.3	94	-0.000228832
10.9667	-0.0336761	9.6	97	0.000467847
11.2667	-0.033667	9.9	100	0.000259379
11.5667	-0.0336639	10.2	103	5.59042e-05
11.8667	-0.0336487	10.5	106	-0.00045271
12.1667	-0.0336304	10.8	109	6.10823e-05
12.4667	-0.033606	11.1	112	0.000218799
12.7667	-0.0335999	11.4	115	-0.0001169
13.0667	-0.0335724	11.7	118	0.000503609
13.3667	-0.0335724	12	121	0.000320462
13.6667	-0.033548	12.3	124	0.000401822
13.9667	-0.0335419	12.6	127	-0.000162795
14.2667	-0.0335297	12.9	130	0.000178106
14.5667	-0.0335236	13.2	133	2.03401e-05
14.8667	-0.03349	13.5	136	0.000111908
15.1667	-0.033493	13.8	139	0.000127169
15.4667	-0.0334717	14.1	142	2.53816e-05
15.7667	-0.0334839	14.4	145	-0.000269537
16.0667	-0.0334473	14.7	148	-0.000106866
16.3667	-0.0334473	15	151	9.15428e-05
16.6667	-0.0334381	15.3	154	-0.000473012
16.9667	-0.0334137	15.6	157	-1.0257e-05
17.2667	-0.0334198	15.9	160	-0.00079859
17.5667	-0.0333893	16.2	163	0.000376391
17.8667	-0.0333893	16.5	166	0.000274765
18.1667	-0.0333679	16.8	169	0.000208504
18.4667	-0.0333679	17.1	172	-0.000366208
18.7667	-0.0333466	17.4	175	0.000254326
19.0667	-0.0333466	17.7	178	9.16173e-05
19.3667	-0.0333313	18	181	-0.000269587
19.6667	-0.0333252	18.3	184	-0.000116999
19.9667	-0.0333282	18.6	187	-0.000605186
20.2667	-0.0333069	18.9	190	-0.000295006
20.5667	-0.0332947	19.2	193	0.000223828
20.8667	-0.0332855	19.5	196	0.000442564
21.1667	-0.0332886	19.8	199	-5.60035e-05
21.4667	-0.0332642	20.1	202	0.000127132
21.7667	-0.0332458	20.4	205	-0.00012214
22.0667	-0.0332489	20.7	208	-0.000330595
22.3667	-0.0332458	21	211	1.00831e-05
22.6667	-0.0332336	21.3	214	-0.000325528
22.9667	-0.0332214	21.6	217	0.000315358
23.2667	-0.0332123	21.9	220	7.62815e-05
23.5667	-0.0332153	22.2	223	-5.59042e-05
23.8667	-0.0332062	22.5	226	0.000122103
24.1667	-0.033197	22.8	229	0.000305114
24.4667	-0.0331726	23.1	232	0.00040176
24.7667	-0.0331787	23.4	235	-0.000111808
25.0667	-0.0331635	23.7	238	-4.06057e-05
25.3667	-0.0331787	24	241	-0.000325416
25.6667	-0.0331482	24.3	244	0.000101849
25.9667	-0.033136	24.6	247	0.000269587
26.2667	-0.0331299	24.9	250	0.000432407
26.5667	-0.0331451	25.2	253	-9.65719e-05
26.8667	-0.0331085	25.5	256	0.00021367
27.1667	-0.0331116	25.8	259	0.000401748
27.4667	-0.0330994	26.1	262	0.000223766
27.7667	-0.0331024	26.4	265	0.000127194
28.0667	-0.0331085	26.7	268	-0.000203525
28.3667	-0.0330872	27	271	0.000345918
28.6667	-0.0330719	27.3	274	0.000508651
28.9667	-0.033078	27.6	277	2.53568e-05
29.2667	-0.0330627	27.9	280	9.65719e-05
29.5667	-0.033075	28.2	283	-0.00013231
29.8667	-0.0330597	28.5	286	-4.07547e-05
30.1667	-0.0330414	28.8	289	-0.000213608
30.4667	-0.0330414	29.1	292	-4.57217e-05
30.7667	-0.0330414	29.4	295	0.000229006
31.0667	-0.033017	29.7	298	0.000722135
31.3667	-0.033017	30	301	1.24176e-08
31.6667	-0.033017	30.3	304	-0.000549344
31.9667	-0.0330109	30.6	307	-2.53196e-05
32.2667	-0.03302	30.9	310	-0.000213558
32.5667	-0.0329987	31.2	313	-0.000157704
32.8667	-0.0330048	31.5	316	-0.000295068
33.1667	-0.0329926	31.8	319	-0.000417083
33.4667	-0.0329834	32.1	322	-6.11072e-05
33.7667	-0.0329651	32.4	325	0.000335748
34.0667	-0.032962	32.7	328	-3.56386e-05
34.3667	-0.0329712	33	331	-7.64057e-05
34.6667	-0.0329498	33.3	334	2.54437e-05
34.9667	-0.0329376	33.6	337	0.000406926
35.2667	-0.0329315	33.9	340	-0.000116949
35.5667	-0.0329559	34.2	343	-3.55765e-05
35.8667	-0.0329224	34.5	346	-7.12151e-05
36.1667	-0.0329315	34.8	349	-7.62691e-05
36.4667	-0.0329071	35.1	352	8.13479e-05
36.7667	-0.0329315	35.4	355	-0.00040181
37.0667	-0.0329071	35.7	358	3.5502e-05
37.3667	-0.0329071	36	361	-0.000274703
37.6667	-0.0328949	36.3	364	0.000406876
37.9667	-0.0328888	36.6	367	0.000249209
38.2667	-0.0328918	36.9	370	0.000172829
38.5667	-0.0328827	37.2	373	0.000396793
38.8667	-0.0328705	37.5	376	0.00054424
39.1667	-0.0328705	37.8	379	3.72529e-08
39.4667	-0.0328613	38.1	382	0.000305064
39.7667	-0.0328705	38.4	385	-0.000167762
40.0667	-0.0328613	38.7	388	-0.000289989
40.3667	-0.0328674	39	391	-2.03898e-05
40.6667	-0.0328491	39.3	394	0.00038142
40.9667	-0.0328522	39.6	397	3.56262e-05
41.2667	-0.03284	39.9	400	4.07298e-05
41.5667	-0.0328339	40.2	403	-0.000254326
41.8667	-0.0328247	40.5	406	-0.000106879
42.1667	-0.0328186	40.8	409	0.000157642
42.4667	-0.0328247	41.1	412	2.54437e-05
42.7667	-0.0328186	41.4	415	-0.000208579
43.0667	-0.0328156	41.7	418	0.000239027
43.3667	-0.0328003	42	421	0.000233923
43.6667	-0.0328064	42.3	424	-0.000295068
43.9667	-0.0327911	42.6	427	-0.000223766
44.2667	-0.0327881	42.9	430	0.000330607
44.5667	-0.032785	43.2	433	-0.000356026
44.8667	-0.0327789	43.5	436	0.000295018
45.1667	-0.032782	43.8	439	3.55517e-05
45.4667	-0.0327667	44.1	442	-0.000132198
45.7667	-0.0327637	44.4	445	5.59538e-05
46.0667	-0.0327515	44.7	448	-5.07881e-06
46.3667	-0.0327576	45	451	0.000254239
46.6667	-0.0327423	45.3	454	-4.07671e-05
46.9667	-0.0327545	45.6	457	-0.000406938
47.2667	-0.0327393	45.9	460	0.00027962
47.5667	-0.0327393	46.2	463	-9.16173e-05
47.8667	-0.0327332	46.5	466	6.61363e-05
48.1667	-0.0327423	46.8	469	-0.000625662
48.4667	-0.0327209	47.1	472	-2.02532e-05
48.7667	-0.0327179	47.4	475	0.000559414
49.0667	-0.0327271	47.7	478	0.00010673
49.3667	-0.0327148	48	481	8.64888e-05
49.6667	-0.0327118	48.3	484	-0.000310341
49.9667	-0.0327057	48.6	487	-2.54189e-05
50.2667	-0.0327026	48.9	490	-0.000493402
50.5667	-0.0326782	49.2	493	0.00031023
50.8667	-0.0327179	49.5	496	-0.000635758
51.1667	-0.0326904	49.8	499	-0.000549219
51.4667	-0.0326965	50.1	502	-0.000249321
51.7667	-0.0326843	50.4	505	-0.000142393
52.0667	-0.0326782	50.7	508	-2.53816e-05
52.3667	-0.0326691	51	511	0.000167862
52.6667	-0.0326691	51.3	514	-0.000183135
52.9667	-0.0326599	51.6	517	0.000213633
53.2667	-0.0326599	51.9	520	4.57217e-05
53.5667	-0.0326447	52.2	523	0.000371362
53.8667	-0.0326508	52.5	526	0.000208542
54.1667	-0.0326508	52.8	529	-0.000228969
54.4667	-0.0326508	53.1	532	0.000183148
54.7667	-0.0326385	53.4	535	-0.000188189
55.0667	-0.0326477	53.7	538	-0.000167837
55.3667	-0.0326294	54	541	-7.62194e-05
55.6667	-0.0326385	54.3	544	-0.000717168
55.9667	-0.0326263	54.6	547	-9.67085e-05
56.2667	-0.0326141	54.9	550	0.000315395
56.5667	-0.0326172	55.2	553	0.000264471
56.8667	-0.0326202	55.5	556	0.000172928
57.1667	-0.0326111	55.8	559	0.000351034
57.4667	-0.0326141	56.1	562	0.000218836
57.7667	-0.032608	56.4	565	2.03401e-05
58.0667	-0.0326141	56.7	568	-0.000111808
58.3667	-0.0325897	57	571	0.000356063
58.6667	-0.032605	57.3	574	4.07422e-05
58.9667	-0.032608	57.6	577	-0.000376391
59.2667	-0.0325928	57.9	580	0.000325491
59.5667	-0.0325897	58.2	583	-0.000264496
59.8667	-0.0325897	58.5	586	-0.000137327
60.1667	-0.0325684	58.8	589	-0.000111796
60.4667	-0.0325714	59.1	592	-0.000147546
60.7667	-0.0325806	59.4	595	0.000152662
61.0667	-0.0325775	59.7	598	-0.000539136
61.2667	-0.0325775	59.9	600	-5.08626e-05