Folder: Streamlit_cement_impedance/data/20200826 (part 2)

File: Z_p33_1.txt
Index	Frequency (Hz)	Z' (Ω)	-Z'' (Ω)	Z (Ω)	-Phase (°)	Time (s)
1	1000000	3481.54	3263.42	4771.91	43.1478	14.3351
2	794330	4077.58	3048.3	5091.05	36.7809	15.8051
3	630960	4724.32	2959.66	5574.84	32.066	17.5101
4	501190	5365.29	2834.86	6068.17	27.8507	19.1051
5	398110	6051.62	2687.89	6621.69	23.9489	24.1702
6	316230	6525.31	2523.95	6996.43	21.1462	25.6653
7	251190	6847.6	2227.55	7200.8	18.0199	29.7303
8	199530	7229.31	2040.67	7511.81	15.7632	31.1104
9	158490	7546.1	1842.04	7767.67	13.7179	32.5654
10	125890	7817.21	1645.94	7988.61	11.8902	34.0404
11	100000	8033.43	1457.33	8164.54	10.2821	35.5055
12	79433	8215.52	1282.45	8315.01	8.87231	36.9855
13	63096	8363.8	1126.31	8439.29	7.66961	40.2155
14	50119	8489.68	985.934	8546.74	6.62427	45.2006
15	39811	8591.28	857.278	8633.95	5.69837	47.4557
16	31623	8671.63	743.33	8703.43	4.8994	49.2657
17	25119	8744.04	657.508	8768.72	4.30026	51.4607
18	19953	8809.39	582.88	8828.66	3.7855	53.7858
19	15849	8867.09	517.427	8882.17	3.33963	57.1559
20	12589	8918.85	460.055	8930.71	2.95283	59.3559
21	10000	8960.65	416.175	8970.31	2.65917	61.6159
22	7943.3	9007.7	377.193	9015.59	2.39783	65.686
23	6309.6	9047.49	342.654	9053.98	2.16891	67.836
24	5011.9	9086.83	317.398	9092.37	2.0005	69.7561
25	3981.1	9119.44	291.984	9124.11	1.83385	71.5011
26	3162.3	9154.89	274.294	9159	1.71615	75.8312
27	2511.9	9177.97	255.942	9181.54	1.59737	78.3412
28	1995.3	9224.73	242.226	9227.91	1.50415	82.3163
29	1584.9	9239.27	231.194	9242.16	1.43341	97.3866
30	1258.9	9265.78	221.362	9268.42	1.36855	99.0666
31	1000	9294.8	210.364	9297.18	1.29652	100.657
32	794.33	9316.38	201.696	9318.57	1.24024	102.482
33	630.96	9346.78	194.128	9348.8	1.18983	103.932
34	501.19	9371.79	190.268	9373.72	1.16307	114.967
35	398.11	9398.11	182.475	9399.88	1.11233	116.302
36	316.23	9420.84	179.795	9422.56	1.09335	118.017
37	251.19	9440.99	176.412	9442.64	1.07049	122.502
38	199.53	9470.69	175.516	9472.32	1.06171	125.917
39	158.49	9490.75	174.29	9492.35	1.05207	130.437
40	125.89	9516.41	176.223	9518.04	1.06087	138.672
41	100	9538.88	183.141	9540.64	1.09991	140.087
42	79.433	9565.68	189.996	9567.57	1.13788	142.457
43	63.096	9579.09	197.216	9581.12	1.17945	145.817
44	50.119	9584.08	214.069	9586.48	1.27954	147.943
45	39.811	9630.31	215.59	9632.72	1.28245	160.293
46	31.623	9659.84	237.809	9662.76	1.41024	162.028
47	25.119	9685.62	247.878	9688.79	1.46601	172.498
48	19.953	9705	269.154	9708.73	1.58861	175.968
49	15.849	9742.94	292.234	9747.32	1.71804	178.573
50	12.589	9778.84	323.129	9784.17	1.89258	181.913
51	10	9811.57	356.352	9818.04	2.08004	184.848
52	7.9433	9842.98	393.479	9850.84	2.28922	187.603
53	6.3096	9891.45	454.632	9901.89	2.63159	190.513
54	5.0119	9928.88	507.976	9941.86	2.92878	193.363
55	3.9811	9978.84	582.455	9995.83	3.34051	198.793
56	3.1623	10019.5	667.425	10041.7	3.81097	206.189
57	2.5119	10107.7	727.68	10133.9	4.11776	209.654
58	1.9953	10029.1	945.319	10073.6	5.38465	213.099
59	1.5849	10254.1	1132.78	10316.4	6.30397	217.694
60	1.2589	10301.2	1212.5	10372.3	6.71312	221.019
61	1	10405.1	1434.59	10503.5	7.85013	231.479
62	0.79433	10521.5	1688.32	10656.1	9.11617	236.849
63	0.63096	10655	1982.39	10837.8	10.5395	240.859
64	0.50119	10749.9	2364.56	11006.9	12.4053	245.239
65	0.39811	10895	2792.11	11247	14.3741	262.59
66	0.31623	11053.9	3353.67	11551.4	16.8775	268.885
67	0.25119	11256.7	4075.57	11971.8	19.9032	274.98
68	0.19953	11561.4	4859.18	12541	22.7967	282.31
69	0.15849	11814.6	5890.12	13201.5	26.4983	290.27
70	0.12589	12099.6	7122.13	14040.1	30.4821	299.8
71	0.1	12517.7	8438.53	15096.4	33.985	310.536

File: Z_p34_1.txt
Index	Frequency (Hz)	Z' (Ω)	-Z'' (Ω)	Z (Ω)	-Phase (°)	Time (s)
1	1000000	3645.35	3543.79	5083.99	44.1906	24.0532
2	794330	4314.91	3290.41	5426.35	37.328	26.4133
3	630960	5023.99	3223.78	5969.36	32.6874	29.9283
4	501190	5721.03	3102.32	6508.04	28.4695	33.2684
5	398110	6492.07	2936.37	7125.26	24.3373	41.0736
6	316230	7009.76	2690.95	7508.53	21.0011	43.5036
7	251190	7354.82	2430.61	7746.04	18.2876	59.6439
8	199530	7762.73	2228.14	8076.17	16.0151	72.0041
9	158490	8118.45	2017.17	8365.3	13.9536	81.7343
10	125890	8411.5	1806.48	8603.3	12.1209	84.9244
11	100000	8644.22	1602.31	8791.47	10.5013	88.3944
12	79433	8852.01	1412.97	8964.07	9.06915	90.3595
13	63096	9023	1245.03	9108.49	7.85631	92.4445
14	50119	9167.51	1095.1	9232.68	6.81194	115.31
15	39811	9280.27	950.974	9328.87	5.85083	124
16	31623	9374.04	829.731	9410.69	5.05828	126.84
17	25119	9453.67	731.318	9481.91	4.42349	128.725
18	19953	9524.4	648.958	9546.48	3.8979	130.81
19	15849	9593.34	579.342	9610.82	3.4559	132.325
20	12589	9644.99	514.779	9658.72	3.05513	133.99
21	10000	9696.78	459.923	9707.68	2.71553	135.69
22	7943.3	9766.01	420.233	9775.04	2.46393	144.37
23	6309.6	9806.24	383.596	9813.74	2.24013	146.235
24	5011.9	9834.22	350.722	9840.48	2.0425	150.726
25	3981.1	9870.76	323.357	9876.05	1.87629	153.476
26	3162.3	9911.37	303.888	9916.03	1.75617	155.496
27	2511.9	9945.13	283.343	9949.17	1.63195	160.096
28	1995.3	9979.45	267.902	9983.05	1.53776	163.541
29	1584.9	10010	253.21	10013.2	1.44902	165.711
30	1258.9	10044.6	238.905	10047.5	1.36249	166.986
31	1000	10068.5	227.009	10071	1.2916	168.336
32	794.33	10096.6	215.43	10098.9	1.22233	169.941
33	630.96	10127.9	207.826	10130	1.17556	173.516
34	501.19	10155.1	200.278	10157.1	1.12983	175.616
35	398.11	10184	193.042	10185.8	1.08593	177.736
36	316.23	10224.3	187.654	10226.1	1.05147	179.611
37	251.19	10252	183.088	10253.6	1.02313	185.321
38	199.53	10270.1	181.422	10271.7	1.01203	193.371
39	158.49	10286.7	180.753	10288.3	1.00667	195.186
40	125.89	10313.2	182.016	10314.8	1.0111	197.206
41	100	10337.1	184.943	10338.7	1.02498	201.012
42	79.433	10359.6	187.467	10361.3	1.03671	203.262
43	63.096	10379.3	190.856	10381.1	1.05344	204.852
44	50.119	10368.6	249.445	10371.6	1.37815	207.212
45	39.811	10433.5	215.496	10435.7	1.18323	221.652
46	31.623	10466.4	222.506	10468.8	1.21787	229.727
47	25.119	10486	236.53	10488.7	1.29219	231.632
48	19.953	10511.1	257.496	10514.3	1.40332	233.597
49	15.849	10546.8	279.322	10550.5	1.51707	237.012
50	12.589	10580.5	309.922	10585.1	1.67781	240.142
51	10	10600.9	350.966	10606.7	1.89621	242.627
52	7.9433	10641.4	398.576	10648.8	2.14503	246.207
53	6.3096	10679.9	443.378	10689.1	2.37727	249.302
54	5.0119	10718.1	500.357	10729.8	2.67282	252.717
55	3.9811	10755	588.967	10771.1	3.13451	257.073
56	3.1623	10825.6	677.365	10846.8	3.58036	260.278
57	2.5119	10842.9	770.775	10870.2	4.06608	265.933
58	1.9953	10991.1	937.749	11031	4.8766	272.088
59	1.5849	11065.8	1078.11	11118.1	5.56462	282.668
60	1.2589	11073.5	1207.19	11139.1	6.22159	287.548
61	1	11195.8	1475.82	11292.7	7.50937	295.468
62	0.79433	11320.3	1752.67	11455.2	8.80098	299.098
63	0.63096	11444.9	2091.25	11634.4	10.355	304.623
64	0.50119	11564.3	2470.5	11825.2	12.0589	310.269
65	0.39811	11698.5	3002.7	12077.7	14.3956	315.959
66	0.31623	11906	3575.41	12431.3	16.7151	322.674
67	0.25119	12113.1	4258.91	12840	19.3714	344.589
68	0.19953	12347.5	5158.91	13381.9	22.6757	353.589
69	0.15849	12676.6	6183.11	14104.1	26.0012	361.459
70	0.12589	13177	7515.37	15169.5	29.6978	374.86
71	0.1	13517.7	9018.09	16249.7	33.7085	386.29

File: Z_p35_1.txt
Index	Frequency (Hz)	Z' (Ω)	-Z'' (Ω)	Z (Ω)	-Phase (°)	Time (s)
1	1000000	3069.81	2697.78	4086.78	41.3093	31.1884
2	794330	3546.06	2538.33	4360.92	35.5957	34.0285
3	630960	4068.3	2461.47	4754.99	31.1755	38.6735
4	501190	4594	2367.21	5168.03	27.2613	41.1686
5	398110	5126.44	2223.51	5587.88	23.448	46.4787
6	316230	5530.76	2051.66	5899.03	20.3526	51.4588
7	251190	5769.36	1821.17	6049.98	17.519	57.2089
8	199530	6082.28	1662.51	6305.4	15.2876	60.2389
9	158490	6339.33	1493.17	6512.81	13.2539	63.484
10	125890	6559.16	1327.08	6692.06	11.438	65.409
11	100000	6728.38	1167.55	6828.93	9.84432	68.5541
12	79433	6872.85	1019.36	6948.04	8.43644	81.1293
13	63096	6985.97	888.098	7042.19	7.24492	84.4994
14	50119	7082.44	775.908	7124.81	6.25204	87.6094
15	39811	7158.99	669.217	7190.2	5.34045	91.0145
16	31623	7219.83	578.249	7242.95	4.57915	93.4646
17	25119	7274.14	508.854	7291.92	4.00154	96.0646
18	19953	7319.79	446.541	7333.4	3.49098	99.3397
19	15849	7362.06	394.508	7372.62	3.06735	101.68
20	12589	7399.61	349.051	7407.84	2.70073	104.005
21	10000	7431.62	313.561	7438.24	2.41604	106.64
22	7943.3	7463.45	285.016	7468.89	2.18696	109.955
23	6309.6	7491.98	260.659	7496.52	1.99261	112.61
24	5011.9	7516.41	240.436	7520.25	1.83217	115.53
25	3981.1	7542.59	223.628	7545.91	1.69824	117.935
26	3162.3	7566.58	208.821	7569.46	1.58084	120.21
27	2511.9	7589.92	198.101	7592.51	1.49511	122.38
28	1995.3	7610.15	187.945	7612.47	1.41472	125.91
29	1584.9	7635.1	179.702	7637.21	1.34828	129.01
30	1258.9	7655.3	172.285	7657.24	1.28924	131.825
31	1000	7680.31	165.346	7682.09	1.2333	134.955
32	794.33	7697.2	160.227	7698.86	1.19251	138.74
33	630.96	7721.98	154.426	7723.53	1.14566	141.005
34	501.19	7738.96	150.516	7740.42	1.11421	145.241
35	398.11	7759.14	145.734	7760.51	1.07602	147.746
36	316.23	7780.95	144.834	7782.3	1.06637	150.611
37	251.19	7798.56	141.713	7799.85	1.04104	153.356
38	199.53	7818.87	142.052	7820.16	1.04082	155.681
39	158.49	7838.52	141.915	7839.8	1.03722	158.026
40	125.89	7858.15	143.952	7859.47	1.04947	160.686
41	100	7880.76	148.16	7882.15	1.07705	164.106
42	79.433	7891.23	150.578	7892.66	1.09317	168.041
43	63.096	7908.8	158.261	7910.38	1.14638	171.421
44	50.119	7898.17	138.342	7899.38	1.00347	175.186
45	39.811	7950.92	167.977	7952.7	1.2103	185.031
46	31.623	7968.34	181.956	7970.42	1.30811	189.196
47	25.119	7988.87	192.981	7991.2	1.38378	198.457
48	19.953	8015.63	203.013	8018.2	1.45083	201.232
49	15.849	8033.89	227.318	8037.11	1.62074	203.812
50	12.589	8057.26	246.008	8061.01	1.74884	206.742
51	10	8084.23	274.144	8088.87	1.94221	209.252
52	7.9433	8112.47	301.9	8118.08	2.13124	211.892
53	6.3096	8141.65	336.549	8148.6	2.36707	214.762
54	5.0119	8167.46	378.587	8176.23	2.65393	217.787
55	3.9811	8212.02	433.944	8223.48	3.02484	221.447
56	3.1623	8253.66	496.986	8268.6	3.44585	224.972
57	2.5119	8274.96	540.179	8292.58	3.73489	228.037
58	1.9953	8298.64	670.157	8325.66	4.61691	231.947
59	1.5849	8530.85	726.79	8561.75	4.86958	235.577
60	1.2589	8453.19	900.763	8501.05	6.08243	238.752
61	1	8539.77	1049.21	8603.99	7.00433	247.472
62	0.79433	8625.24	1230.61	8712.59	8.11989	251.552
63	0.63096	8716.35	1450.01	8836.13	9.44497	258.458
64	0.50119	8822.15	1712.3	8986.79	10.984	264.318
65	0.39811	8912.45	2040.97	9143.15	12.8985	275.913
66	0.31623	9004.56	2434	9327.73	15.126	281.293
67	0.25119	9178.03	2928.95	9634.05	17.6992	287.408
68	0.19953	9310.21	3443.62	9926.65	20.2982	294.398
69	0.15849	9512.75	4141.04	10375	23.5242	302.293
70	0.12589	9695.02	5002.56	10909.6	27.2934	311.669
71	0.1	9850.71	6147.23	11611.4	31.9658	325.884

File: Z_p36_1.txt
Index	Frequency (Hz)	Z' (Ω)	-Z'' (Ω)	Z (Ω)	-Phase (°)	Time (s)
1	1000000	3574.93	3136.27	4755.66	41.2603	19.8532
2	794330	4148.25	2871.85	5045.35	34.695	21.9182
3	630960	4742.66	2770.21	5492.44	30.2894	24.4532
4	501190	5307.02	2613.06	5915.45	26.2146	26.9383
5	398110	5943.14	2421.81	6417.64	22.1708	45.4536
6	316230	6407.09	2249.29	6790.44	19.3443	47.2587
7	251190	6624.47	1957.68	6907.69	16.4636	54.4388
8	199530	6956.92	1778.5	7180.65	14.3402	56.7438
9	158490	7228.77	1592.15	7402.03	12.4212	59.4439
10	125890	7453.35	1410.98	7585.73	10.7197	62.4739
11	100000	7629.56	1238.9	7729.5	9.22324	65.379
12	79433	7781.79	1082.44	7856.72	7.919	67.389
13	63096	7904.65	941.172	7960.49	6.78998	69.9141
14	50119	7999.04	818.776	8040.83	5.8444	73.2441
15	39811	8084.28	709.764	8115.38	5.01745	75.5992
16	31623	8145.91	614.795	8169.08	4.31609	77.9092
17	25119	8198.69	539.454	8216.42	3.7645	81.1893
18	19953	8249.76	474.738	8263.41	3.2935	83.6643
19	15849	8297.39	418.338	8307.93	2.88629	88.2694
20	12589	8332.78	374.147	8341.18	2.57089	90.6195
21	10000	8370.06	336.977	8376.84	2.30547	93.5345
22	7943.3	8402.96	305.165	8408.49	2.07986	103.785
23	6309.6	8434.67	276.039	8439.18	1.87443	107.775
24	5011.9	8462.32	255.256	8466.17	1.72774	109.925
25	3981.1	8487.09	236.847	8490.39	1.59852	111.865
26	3162.3	8519.97	221.705	8522.85	1.4906	114.095
27	2511.9	8540.52	210.01	8543.1	1.40861	116.195
28	1995.3	8565.7	198.235	8567.99	1.32575	118.41
29	1584.9	8590.05	188.399	8592.12	1.25642	122.74
30	1258.9	8607.83	179.799	8609.71	1.19661	125.6
31	1000	8628.12	171.876	8629.83	1.14121	136.385
32	794.33	8653.16	165.697	8654.74	1.09701	140.125
33	630.96	8673.76	160.189	8675.24	1.05803	143.425
34	501.19	8694.46	155.248	8695.84	1.02296	145.16
35	398.11	8712.07	149.14	8713.34	0.980735	147.326
36	316.23	8733.82	145.523	8735.03	0.954575	149.191
37	251.19	8755.47	143.501	8756.65	0.938989	152.256
38	199.53	8773.05	145.823	8774.26	0.952265	154.281
39	158.49	8792.1	144.061	8793.28	0.938725	159.506
40	125.89	8812.83	147.979	8814.07	0.961984	168.151
41	100	8829.06	152.858	8830.38	0.991863	171.096
42	79.433	8843.76	160.374	8845.21	1.0389	173.276
43	63.096	8883.31	164.829	8884.84	1.063	179.551
44	50.119	8890.9	180.907	8892.74	1.16566	210.752
45	39.811	8904.46	184.759	8906.38	1.18866	222.197
46	31.623	8922.19	199.141	8924.41	1.27862	224.867
47	25.119	8941.1	218.505	8943.77	1.39993	229.287
48	19.953	8969.84	240.862	8973.07	1.53816	234.162
49	15.849	8996.2	261.426	8999.99	1.66453	237.107
50	12.589	9021.12	287.368	9025.7	1.82454	241.122
51	10	9049.42	319.04	9055.04	2.01914	248.017
52	7.9433	9077.96	365.772	9085.32	2.30733	250.837
53	6.3096	9115.98	409.479	9125.18	2.57193	253.967
54	5.0119	9149.15	468.338	9161.12	2.93037	257.708
55	3.9811	9184.06	536.506	9199.72	3.34325	260.313
56	3.1623	9232.4	630.129	9253.88	3.90449	262.908
57	2.5119	9244.9	747.758	9275.09	4.62421	265.638
58	1.9953	9267.66	884.378	9309.76	5.45101	268.373
59	1.5849	9392.98	981.03	9444.08	5.96251	271.538
60	1.2589	9444.54	1198.53	9520.29	7.23227	274.728
61	1	9541.79	1415.97	9646.28	8.44089	280.503
62	0.79433	9634.64	1688.63	9781.5	9.94106	285.223
63	0.63096	9735.33	2017.6	9942.2	11.7085	290.058
64	0.50119	9829.51	2426.61	10124.6	13.8673	294.083
65	0.39811	9918.67	2906	10335.6	16.3297	298.478
66	0.31623	10054.7	3543.7	10660.9	19.4145	303.453
67	0.25119	10195	4284.17	11058.6	22.7932	310.139
68	0.19953	10512.1	5222.76	11738	26.4198	317.134
69	0.15849	10590.2	6316.55	12330.9	30.8141	326.154
70	0.12589	10850	7704.01	13306.9	35.3765	335.684
71	0.1	11311.5	9532.65	14792.6	40.1221	346.099

File: Z_p37_1.txt
Index	Frequency (Hz)	Z' (Ω)	-Z'' (Ω)	Z (Ω)	-Phase (°)	Time (s)
1	1000000	3799.34	3604.31	5236.99	43.491	29.7634
2	794330	4451.6	3323.6	5555.46	36.7453	32.3634
3	630960	5175.65	3206.94	6088.66	31.7832	34.6035
4	501190	5856.36	3082.87	6618.24	27.763	36.8385
5	398110	6641.01	2908.72	7250.08	23.6531	44.4287
6	316230	7144.26	2675.7	7628.88	20.5322	46.7187
7	251190	7486.73	2397.98	7861.39	17.7601	57.1239
8	199530	7893.84	2195.89	8193.58	15.5454	63.664
9	158490	8236.64	1983.52	8472.11	13.54	66.7141
10	125890	8523.99	1770.74	8705.97	11.7355	70.1191
11	100000	8753.1	1570.29	8892.84	10.1706	76.0992
12	79433	8949.04	1380.31	9054.87	8.76827	82.8544
13	63096	9110.37	1206.4	9189.9	7.54325	87.1344
14	50119	9241.54	1063.89	9302.57	6.56703	91.3145
15	39811	9358.23	926.643	9403.99	5.65494	95.2046
16	31623	9436.39	803.611	9470.55	4.86761	98.6197
17	25119	9522.24	708.23	9548.54	4.25362	102.16
18	19953	9587.82	627.493	9608.33	3.74449	106.36
19	15849	9654.44	558.602	9670.59	3.31142	109.07
20	12589	9705.68	501.704	9718.63	2.95909	111.235
21	10000	9754.37	449.66	9764.73	2.63937	121.85
22	7943.3	9795.25	407.867	9803.74	2.38438	124.37
23	6309.6	9845.43	374.368	9852.54	2.1776	127.61
24	5011.9	9874.59	342.806	9880.54	1.98828	129.29
25	3981.1	9915	321.29	9920.21	1.85599	130.725
26	3162.3	9947.74	299.05	9952.23	1.72191	132.055
27	2511.9	9982.44	283.84	9986.48	1.6287	133.515
28	1995.3	10017.3	268.79	10020.9	1.53703	134.905
29	1584.9	10043.1	258.649	10046.4	1.47527	136.135
30	1258.9	10075.3	249.471	10078.4	1.41839	137.55
31	1000	10103.2	241.433	10106.1	1.36891	138.99
32	794.33	10134.7	231.871	10137.4	1.31064	140.7
33	630.96	10166.3	227.576	10168.9	1.28237	142.01
34	501.19	10198.3	223.596	10200.8	1.256	143.31
35	398.11	10229.3	219.598	10231.6	1.22981	144.576
36	316.23	10258.9	218.368	10261.2	1.2194	145.856
37	251.19	10288.2	218.618	10290.6	1.21731	147.191
38	199.53	10306.7	224.973	10309.2	1.25044	148.686
39	158.49	10337	230.446	10339.6	1.2771	150.021
40	125.89	10367.4	239.372	10370.1	1.32267	151.456
41	100	10400.8	251.161	10403.8	1.38333	153.156
42	79.433	10432.5	263.79	10435.8	1.44844	155.996
43	63.096	10460.6	282.193	10464.4	1.54528	159.346
44	50.119	10434.2	248.729	10437.2	1.36555	161.331
45	39.811	10531.8	322.83	10536.7	1.75573	172.586
46	31.623	10576	348.681	10581.7	1.88831	174.256
47	25.119	10611	382.576	10617.9	2.06489	176.326
48	19.953	10658.2	426.282	10666.7	2.29038	179.291
49	15.849	10707.4	463.937	10717.4	2.481	181.606
50	12.589	10761.3	509.199	10773.3	2.70909	183.696
51	10	10814	574.087	10829.2	3.03884	186.601
52	7.9433	10879.7	633.32	10898.2	3.33148	189.886
53	6.3096	10951.4	720.872	10975.1	3.76603	192.966
54	5.0119	11011.4	805.028	11040.8	4.18136	196.856
55	3.9811	11095.7	902.152	11132.3	4.6483	199.787
56	3.1623	11172.9	1031.51	11220.4	5.27474	202.702
57	2.5119	11270.5	1221.56	11336.5	6.18589	205.747
58	1.9953	11363.5	1429.68	11453.1	7.17085	208.967
59	1.5849	11271.5	1599.78	11384.4	8.07812	212.232
60	1.2589	11553.5	1829.49	11697.5	8.99802	215.192
61	1	11765.5	2168.82	11963.7	10.4445	220.852
62	0.79433	11952	2552	12221.4	12.0528	224.427
63	0.63096	12141.9	2990.44	12504.7	13.8361	229.467
64	0.50119	12333.4	3561.75	12837.4	16.1082	238.392
65	0.39811	12517.5	4249.74	13219.2	18.7526	243.977
66	0.31623	12797.6	5114.86	13781.9	21.7853	248.917
67	0.25119	13169.6	6031.72	14485.2	24.6079	254.378
68	0.19953	13626	7269.19	15443.7	28.079	260.858
69	0.15849	13979.9	8782.99	16510	32.1393	269.403
70	0.12589	14698.3	10507.6	18067.9	35.5605	277.918
71	0.1	15147.9	12493.9	19635.5	39.5156	288.188

File: Z_p38_1.txt
Index	Frequency (Hz)	Z' (Ω)	-Z'' (Ω)	Z (Ω)	-Phase (°)	Time (s)
1	1000000	3512.11	3216.81	4762.64	42.4872	15.2991
2	794330	4091.89	2997.87	5072.55	36.2279	16.8941
3	630960	4733.56	2891.53	5546.85	31.419	18.3541
4	501190	5357.26	2759.61	6026.25	27.2537	20.3692
5	398110	6000.41	2592.23	6536.41	23.3648	25.6443
6	316230	6507.61	2384.97	6930.88	20.1273	26.9143
7	251190	6755.72	2130.73	7083.77	17.5051	31.3294
8	199530	7116.57	1948.05	7378.38	15.3088	32.6944
9	158490	7418.21	1755.1	7623.01	13.311	34.4494
10	125890	7676.23	1566.69	7834.48	11.5354	35.7695
11	100000	7878.61	1385.21	7999.45	9.97177	37.2145
12	79433	8052.53	1220.32	8144.47	8.6173	38.5095
13	63096	8187.08	1063.25	8255.83	7.39956	40.0945
14	50119	8301.57	938.923	8354.5	6.45284	41.4596
15	39811	8401.29	814.653	8440.69	5.53852	42.8746
16	31623	8478.09	710.936	8507.85	4.79336	44.2646
17	25119	8546.43	626.676	8569.37	4.19377	47.1997
18	19953	8614.77	556.728	8632.74	3.69759	49.7697
19	15849	8669.7	492.968	8683.7	3.2544	52.2998
20	12589	8713.64	443.402	8724.91	2.91304	54.6048
21	10000	8758.95	398.876	8768.03	2.6074	58.1049
22	7943.3	8800.27	361.228	8807.68	2.35052	60.0099
23	6309.6	8839.35	328.1	8845.44	2.12574	62.1149
24	5011.9	8873.19	302.73	8878.35	1.95402	64.45
25	3981.1	8907	279.642	8911.39	1.79825	66.64
26	3162.3	8934.47	260.309	8938.26	1.66886	69.4051
27	2511.9	8964.82	243.364	8968.12	1.555	71.7951
28	1995.3	8989.05	229.354	8991.97	1.46157	76.0552
29	1584.9	9018.85	216.403	9021.45	1.37452	78.8353
30	1258.9	9041.36	204.386	9043.67	1.29499	80.8553
31	1000	9068.39	194.987	9070.48	1.23177	82.7253
32	794.33	9091.92	186.207	9093.82	1.17328	85.7204
33	630.96	9118.36	175.465	9120.05	1.10241	87.9454
34	501.19	9167.32	167.405	9168.84	1.04616	91.7305
35	398.11	9163.83	160.892	9165.24	1.00585	99.0056
36	316.23	9180.57	154.875	9181.88	0.966482	101.076
37	251.19	9205.16	146.785	9206.33	0.913556	103.581
38	199.53	9220.66	147.1	9221.83	0.913977	105.601
39	158.49	9239.35	141.85	9240.44	0.879583	107.536
40	125.89	9261.45	141.916	9262.54	0.877893	109.996
41	100	9283.2	141.88	9284.28	0.875614	112.081
42	79.433	9296.76	141.841	9297.84	0.874097	114.231
43	63.096	9318.89	141.847	9319.97	0.872056	116.601
44	50.119	9285.69	125.571	9286.54	0.774769	118.846
45	39.811	9351.7	151.047	9352.92	0.925351	128.206
46	31.623	9367.92	159.345	9369.27	0.974487	132.801
47	25.119	9384.64	163.442	9386.06	0.997757	142.491
48	19.953	9401.44	171.349	9403	1.04415	145.526
49	15.849	9424.73	192.32	9426.7	1.16901	147.997
50	12.589	9432.69	204.589	9434.91	1.24252	151.562
51	10	9456.26	230.309	9459.06	1.39518	155.607
52	7.9433	9471.04	256.869	9474.52	1.55357	160.527
53	6.3096	9498.33	289.459	9502.74	1.74553	164.042
54	5.0119	9513.26	328.238	9518.92	1.9761	167.337
55	3.9811	9545.61	385.235	9553.38	2.31105	172.292
56	3.1623	9573.26	449.007	9583.79	2.68533	175.482
57	2.5119	9565.76	562.694	9582.3	3.36647	179.547
58	1.9953	9568.96	636.773	9590.12	3.80718	183.762
59	1.5849	9677.91	727.168	9705.19	4.29695	191.282
60	1.2589	9723.63	885.241	9763.85	5.20188	198.542
61	1	9774.23	1057.76	9831.29	6.17648	205.068
62	0.79433	9848.2	1277.37	9930.7	7.39035	210.268
63	0.63096	9905.63	1516.39	10021	8.70348	214.923
64	0.50119	9997.26	1833.06	10163.9	10.3901	220.743
65	0.39811	10079.6	2227.14	10322.7	12.4596	227.698
66	0.31623	10189.5	2706.31	10542.8	14.8742	234.128
67	0.25119	10389.6	3289.28	10897.9	17.5674	241.118
68	0.19953	10571.7	4021.61	11310.8	20.8275	249.578
69	0.15849	10841.7	4872.63	11886.4	24.2007	256.929
70	0.12589	11038.9	5799.28	12469.5	27.7151	265.399
71	0.1	11382.9	7231.88	13486	32.4289	279.284

File: Z_p39_1.txt
Index	Frequency (Hz)	Z' (Ω)	-Z'' (Ω)	Z (Ω)	-Phase (°)	Time (s)
1	1000000	2587.86	1962.88	3248.06	37.1802	12.734
2	794330	2904.52	1836.76	3436.56	32.3084	14.1991
3	630960	3259.88	1767.88	3708.4	28.4716	15.6291
4	501190	3613.85	1664.12	3978.59	24.7252	17.1491
5	398110	3958.97	1546.12	4250.17	21.3324	21.3442
6	316230	4227.29	1421.24	4459.81	18.583	22.6792
7	251190	4389.92	1248.28	4563.94	15.8732	26.7343
8	199530	4603.59	1133.59	4741.1	13.8334	28.0493
9	158490	4780.14	1014.08	4886.53	11.9774	29.4393
10	125890	4922.8	896.431	5003.76	10.3204	30.7744
11	100000	5033.61	785.759	5094.57	8.8724	32.4244
12	79433	5125.69	686.059	5171.4	7.62357	35.3094
13	63096	5202.49	599.002	5236.86	6.56798	37.0995
14	50119	5263.3	522.757	5289.2	5.67207	38.7945
15	39811	5316.4	454.937	5335.83	4.89101	40.2695
16	31623	5356.72	396.938	5371.41	4.23793	41.6496
17	25119	5393.24	351.788	5404.7	3.73198	43.0246
18	19953	5424.79	315.922	5433.98	3.33296	44.4396
19	15849	5458.22	284.71	5465.64	2.98594	46.2997
20	12589	5483.51	259.072	5489.62	2.70496	47.6397
21	10000	5510.37	238.398	5515.53	2.47727	49.0697
22	7943.3	5536.01	222.385	5540.47	2.30037	50.5397
23	6309.6	5557.57	208.783	5561.49	2.15144	51.8698
24	5011.9	5584.22	198.454	5587.75	2.03534	53.1998
25	3981.1	5604.21	190.667	5607.46	1.94857	54.5548
26	3162.3	5626.14	184.156	5629.15	1.87475	55.9548
27	2511.9	5649.08	179.774	5651.94	1.82274	57.4099
28	1995.3	5673.39	176.469	5676.13	1.78159	58.9299
29	1584.9	5693.79	174.369	5696.46	1.7541	60.1249
30	1258.9	5715.31	172.027	5717.89	1.72404	61.4399
31	1000	5738.82	172.039	5741.4	1.7171	62.82
32	794.33	5761.61	172.124	5764.18	1.71116	64.99
33	630.96	5784.51	172.683	5787.09	1.70993	66.405
34	501.19	5805.88	173.955	5808.48	1.71618	68.2701
35	398.11	5830.63	175.908	5833.28	1.72807	69.9301
36	316.23	5854.24	180.088	5857.01	1.76197	74.9502
37	251.19	5880.09	186.976	5883.06	1.82129	76.3252
38	199.53	5901.61	193.453	5904.78	1.87747	78.3152
39	158.49	5927.06	202.575	5930.53	1.95749	81.0453
40	125.89	5954.02	214.033	5957.87	2.05876	82.5403
41	100	5981.77	229.891	5986.19	2.20091	84.0103
42	79.433	6007.57	246.456	6012.62	2.3492	87.7354
43	63.096	6034.8	264.966	6040.61	2.51404	90.2105
44	50.119	6096.83	298.403	6104.13	2.80204	92.6405
45	39.811	6107.81	316.546	6116.01	2.96678	102.281
46	31.623	6144.92	343.506	6154.51	3.19955	104.671
47	25.119	6190.05	380.644	6201.74	3.51885	107.311
48	19.953	6235.71	415.633	6249.55	3.81333	110.311
49	15.849	6295.21	458.427	6311.88	4.16501	113.376
50	12.589	6352.25	504.879	6372.28	4.54434	115.896
51	10	6418.44	546.433	6441.66	4.86613	118.246
52	7.9433	6486.49	601.25	6514.29	5.29576	120.916
53	6.3096	6560.68	661.379	6593.93	5.75651	124.721
54	5.0119	6635.63	724.753	6675.09	6.23322	127.411
55	3.9811	6714.07	800.977	6761.68	6.80313	129.976
56	3.1623	6800.04	892.129	6858.31	7.47422	133.496
57	2.5119	6884.72	999.008	6956.83	8.25628	136.406
58	1.9953	7062.72	1143.23	7154.64	9.19465	140.186
59	1.5849	7038.47	1218.5	7143.17	9.82171	143.991
60	1.2589	7171.14	1502.94	7326.94	11.8368	146.912
61	1	7290.75	1704.38	7487.32	13.1579	153.297
62	0.79433	7423.58	1986.68	7684.82	14.9823	157.787
63	0.63096	7548.25	2312.28	7894.47	17.0315	161.517
64	0.50119	7679.49	2739.45	8153.48	19.6325	165.502
65	0.39811	7860.2	3240.78	8502.08	22.4065	170.002
66	0.31623	8010.59	3886.43	8903.59	25.8809	174.767
67	0.25119	8283.36	4695.3	9521.55	29.5461	180.237
68	0.19953	8466.15	5676.81	10193.2	33.843	186.937
69	0.15849	8771.67	6867.64	11140.3	38.0586	194.302
70	0.12589	9151.36	8213.53	12296.7	41.9086	202.888
71	0.1	9446.05	9927.87	13703.7	46.4246	213.533