Folder: Streamlit_cement_impedance/data/20200205 (part 3)

File: OCP_p32_1.txt
Time (s)	WE(1).Potential (V)	Corrected time (s)	Index	dWE(1).Potential/dt (V/s)	Cutoffs	OCP value (V)
1.50575	-0.0576477	0	1	0	dWE(1).Potential/dt < 1E-06 V/s	-0.0580911
1.60575	-0.0577087	0.1	2	-0.000610351	dWE(1).Potential/dt < 1E-06 V/s
1.70575	-0.0576782	0.2	3	0.000762939
1.80575	-0.0577087	0.3	4	-0.00111898	dWE(1).Potential/dt < 1E-06 V/s
1.90575	-0.0576782	0.4	5	0.00101725
2.00575	-0.0577087	0.5	6	-0.00101725	dWE(1).Potential/dt < 1E-06 V/s
2.10575	-0.0577087	0.6	7	0.000457764
2.20575	-0.0576782	0.7	8	0.000457764
2.30575	-0.0577087	0.8	9	-0.000915527	dWE(1).Potential/dt < 1E-06 V/s
2.40575	-0.0577087	0.9	10	0.000457764
2.50575	-0.0577087	1	11	-0.000101725	dWE(1).Potential/dt < 1E-06 V/s
2.60575	-0.0576782	1.1	12	0.000559489
2.70575	-0.0577393	1.2	13	-0.00147502	dWE(1).Potential/dt < 1E-06 V/s
2.80575	-0.0577087	1.3	14	0.00137329
2.90575	-0.0577087	1.4	15	-0.000559489	dWE(1).Potential/dt < 1E-06 V/s
3.00575	-0.0577393	1.5	16	-0.000457764	dWE(1).Potential/dt < 1E-06 V/s
3.10575	-0.0577087	1.6	17	0.000915527
3.20575	-0.0577087	1.7	18	-0.000457764	dWE(1).Potential/dt < 1E-06 V/s
3.30575	-0.0577087	1.8	19	0.000101725
3.40575	-0.0577698	1.9	20	-0.00111898	dWE(1).Potential/dt < 1E-06 V/s
3.50575	-0.0577393	2	21	0.00127157
3.60575	-0.0577393	2.1	22	-0.000559489	dWE(1).Potential/dt < 1E-06 V/s
3.70575	-0.0577087	2.2	23	0.000661214
3.80575	-0.0577087	2.3	24	-0.000356038	dWE(1).Potential/dt < 1E-06 V/s
3.90575	-0.0577393	2.4	25	-0.000457764	dWE(1).Potential/dt < 1E-06 V/s
4.00575	-0.0577698	2.5	26	-0.00020345	dWE(1).Potential/dt < 1E-06 V/s
4.10575	-0.0577393	2.6	27	0.000813802
4.20575	-0.0577393	2.7	28	-0.000457764	dWE(1).Potential/dt < 1E-06 V/s
4.30575	-0.0577087	2.8	29	0.000661214
4.40575	-0.0577393	2.9	30	-0.000915527	dWE(1).Potential/dt < 1E-06 V/s
4.50575	-0.0577393	3	31	0.000457764
4.60575	-0.0577698	3.1	32	-0.000661214	dWE(1).Potential/dt < 1E-06 V/s
4.70575	-0.0577698	3.2	33	0.000356038
4.80575	-0.0577393	3.3	34	0.000457764
4.90575	-0.0577393	3.4	35	-0.000356038	dWE(1).Potential/dt < 1E-06 V/s
5.00575	-0.0577393	3.5	36	0.000101725
5.10575	-0.0577393	3.6	37	0	dWE(1).Potential/dt < 1E-06 V/s
5.20575	-0.0577698	3.7	38	-0.000559489	dWE(1).Potential/dt < 1E-06 V/s
5.30575	-0.0577393	3.8	39	0.000915527
5.40575	-0.0577698	3.9	40	-0.00101725	dWE(1).Potential/dt < 1E-06 V/s
5.50575	-0.0577698	4	41	0.000457764
5.60575	-0.0578003	4.1	42	-0.000661214	dWE(1).Potential/dt < 1E-06 V/s
5.70575	-0.0578003	4.2	43	0.000356038
5.80575	-0.0577698	4.3	44	0.000457764
5.90575	-0.0577698	4.4	45	-0.000356038	dWE(1).Potential/dt < 1E-06 V/s
6.00575	-0.0577698	4.5	46	0.000101725
6.10575	-0.0578003	4.6	47	-0.000559489	dWE(1).Potential/dt < 1E-06 V/s
6.20575	-0.0578003	4.7	48	0.000356038
6.30575	-0.0577698	4.8	49	0.000457764
6.40575	-0.0578003	4.9	50	-0.000915527	dWE(1).Potential/dt < 1E-06 V/s
6.50575	-0.0577698	5	51	0.00101725
6.60575	-0.0578003	5.1	52	-0.00101725	dWE(1).Potential/dt < 1E-06 V/s
6.70575	-0.0578003	5.2	53	0.000457764
6.80575	-0.0578003	5.3	54	-0.000101725	dWE(1).Potential/dt < 1E-06 V/s
6.90575	-0.0578003	5.4	55	0	dWE(1).Potential/dt < 1E-06 V/s
7.00575	-0.0578003	5.5	56	0	dWE(1).Potential/dt < 1E-06 V/s
7.10575	-0.0577698	5.6	57	0.000559489
7.20575	-0.0577698	5.7	58	-0.000356038	dWE(1).Potential/dt < 1E-06 V/s
7.30575	-0.0578003	5.8	59	-0.000457764	dWE(1).Potential/dt < 1E-06 V/s
7.40575	-0.0578003	5.9	60	0.000356038
7.50575	-0.0578308	6	61	-0.000661214	dWE(1).Potential/dt < 1E-06 V/s
7.60575	-0.0578003	6.1	62	0.000915527
7.70575	-0.0578003	6.2	63	-0.000457764	dWE(1).Potential/dt < 1E-06 V/s
7.80575	-0.0578003	6.3	64	0.000101725
7.90575	-0.0578003	6.4	65	0	dWE(1).Potential/dt < 1E-06 V/s
8.00575	-0.0578308	6.5	66	-0.000559489	dWE(1).Potential/dt < 1E-06 V/s
8.10575	-0.0578003	6.6	67	0.000915527
8.20575	-0.0578308	6.7	68	-0.00101725	dWE(1).Potential/dt < 1E-06 V/s
8.30575	-0.0578308	6.8	69	0.000457764
8.40575	-0.0578003	6.9	70	0.000457764
8.50575	-0.0578308	7	71	-0.000915527	dWE(1).Potential/dt < 1E-06 V/s
8.60575	-0.0578308	7.1	72	0.000457764
8.70575	-0.0578308	7.2	73	-0.000101725	dWE(1).Potential/dt < 1E-06 V/s
8.80575	-0.0578308	7.3	74	0	dWE(1).Potential/dt < 1E-06 V/s
8.90575	-0.0578003	7.4	75	0.000559489
9.00575	-0.0578308	7.5	76	-0.000915527	dWE(1).Potential/dt < 1E-06 V/s
9.10575	-0.0578308	7.6	77	0.000457764
9.20575	-0.0578308	7.7	78	-0.000101725	dWE(1).Potential/dt < 1E-06 V/s
9.30575	-0.0578003	7.8	79	0.000559489
9.40575	-0.0578308	7.9	80	-0.000915527	dWE(1).Potential/dt < 1E-06 V/s
9.50575	-0.0578308	8	81	0.000457764
9.60575	-0.0578308	8.1	82	-0.000101725	dWE(1).Potential/dt < 1E-06 V/s
9.70575	-0.0578613	8.2	83	-0.000559489	dWE(1).Potential/dt < 1E-06 V/s
9.80575	-0.0578308	8.3	84	0.000915527
9.90575	-0.0578308	8.4	85	-0.000457764	dWE(1).Potential/dt < 1E-06 V/s
10.0057	-0.0578308	8.5	86	0.000101725
10.1057	-0.0578308	8.6	87	0	dWE(1).Potential/dt < 1E-06 V/s
10.2057	-0.0578308	8.7	88	0	dWE(1).Potential/dt < 1E-06 V/s
10.3057	-0.0578613	8.8	89	-0.000559489	dWE(1).Potential/dt < 1E-06 V/s
10.4057	-0.0578613	8.9	90	0.000356038
10.5057	-0.0578308	9	91	0.000457764
10.6057	-0.0578918	9.1	92	-0.00147502	dWE(1).Potential/dt < 1E-06 V/s
10.7057	-0.0578918	9.2	93	0.000813802
10.8057	-0.0578613	9.3	94	0.000356038
10.9057	-0.0578613	9.4	95	-0.000356038	dWE(1).Potential/dt < 1E-06 V/s
11.0057	-0.0578308	9.5	96	0.000661214
11.1057	-0.0578613	9.6	97	-0.000915527	dWE(1).Potential/dt < 1E-06 V/s
11.2057	-0.0578613	9.7	98	0.000457764
11.3057	-0.0578613	9.8	99	-0.000101725	dWE(1).Potential/dt < 1E-06 V/s
11.4057	-0.0578613	9.9	100	0	dWE(1).Potential/dt < 1E-06 V/s
11.5057	-0.0578613	10	101	0	dWE(1).Potential/dt < 1E-06 V/s
11.6057	-0.0578613	10.1	102	0	dWE(1).Potential/dt < 1E-06 V/s
11.7057	-0.0578613	10.2	103	0	dWE(1).Potential/dt < 1E-06 V/s , dWE(1).Potential/dt > -1E-06 V/s
11.8057	-0.0578613	10.3	104	0	dWE(1).Potential/dt < 1E-06 V/s , dWE(1).Potential/dt > -1E-06 V/s
11.9057	-0.0578613	10.4	105	0	dWE(1).Potential/dt < 1E-06 V/s , dWE(1).Potential/dt > -1E-06 V/s
12.0057	-0.0578613	10.5	106	0	dWE(1).Potential/dt < 1E-06 V/s , dWE(1).Potential/dt > -1E-06 V/s
12.1057	-0.0578308	10.6	107	0.000559489
12.2057	-0.0578613	10.7	108	-0.000915527	dWE(1).Potential/dt < 1E-06 V/s
12.3057	-0.0578613	10.8	109	0.000457764
12.4057	-0.0578918	10.9	110	-0.000661214	dWE(1).Potential/dt < 1E-06 V/s
12.5057	-0.0578613	11	111	0.000915527
12.6057	-0.0578613	11.1	112	-0.000457764	dWE(1).Potential/dt < 1E-06 V/s
12.7057	-0.0578918	11.2	113	-0.000457764	dWE(1).Potential/dt < 1E-06 V/s
12.8057	-0.0578613	11.3	114	0.000915527
12.9057	-0.0578918	11.4	115	-0.00101725	dWE(1).Potential/dt < 1E-06 V/s
13.0057	-0.0578613	11.5	116	0.00101725
13.1057	-0.0578918	11.6	117	-0.00101725	dWE(1).Potential/dt < 1E-06 V/s
13.2057	-0.0578918	11.7	118	0.000457764
13.3057	-0.0578918	11.8	119	-0.000101725	dWE(1).Potential/dt < 1E-06 V/s
13.4057	-0.0578918	11.9	120	0	dWE(1).Potential/dt < 1E-06 V/s
13.5057	-0.0578613	12	121	0.000559489
13.6057	-0.0578918	12.1	122	-0.000915527	dWE(1).Potential/dt < 1E-06 V/s
13.7057	-0.0578918	12.2	123	0.000457764
13.8057	-0.0578613	12.3	124	0.000457764
13.9057	-0.0578613	12.4	125	-0.000356038	dWE(1).Potential/dt < 1E-06 V/s
14.0057	-0.0578918	12.5	126	-0.000457764	dWE(1).Potential/dt < 1E-06 V/s
14.1057	-0.0578918	12.6	127	0.000356038
14.2057	-0.0579224	12.7	128	-0.000661214	dWE(1).Potential/dt < 1E-06 V/s
[...]
41.1057	-0.058075	39.6	397	0.000356038
41.2057	-0.058075	39.7	398	-0.000101725	dWE(1).Potential/dt < 1E-06 V/s
41.3057	-0.058075	39.8	399	0	dWE(1).Potential/dt < 1E-06 V/s
41.4057	-0.058075	39.9	400	0	dWE(1).Potential/dt < 1E-06 V/s
41.5057	-0.058075	40	401	0	dWE(1).Potential/dt < 1E-06 V/s
41.6057	-0.058075	40.1	402	0	dWE(1).Potential/dt < 1E-06 V/s , dWE(1).Potential/dt > -1E-06 V/s
41.7057	-0.0581055	40.2	403	-0.000559489	dWE(1).Potential/dt < 1E-06 V/s
41.8057	-0.0581055	40.3	404	0.000356038
41.9057	-0.058075	40.4	405	0.000457764
42.0057	-0.058075	40.5	406	-0.000356038	dWE(1).Potential/dt < 1E-06 V/s
42.1057	-0.058075	40.6	407	0.000101725
42.2057	-0.058075	40.7	408	0	dWE(1).Potential/dt < 1E-06 V/s
42.3057	-0.0581055	40.8	409	-0.000559489	dWE(1).Potential/dt < 1E-06 V/s
42.4057	-0.058075	40.9	410	0.000915527
42.5057	-0.058075	41	411	-0.000457764	dWE(1).Potential/dt < 1E-06 V/s
42.6057	-0.058075	41.1	412	0.000101725
42.7057	-0.058075	41.2	413	0	dWE(1).Potential/dt < 1E-06 V/s
42.8057	-0.0581055	41.3	414	-0.000559489	dWE(1).Potential/dt < 1E-06 V/s
42.9057	-0.058075	41.4	415	0.000915527
43.0057	-0.058075	41.5	416	-0.000457764	dWE(1).Potential/dt < 1E-06 V/s
43.1057	-0.0581055	41.6	417	-0.000457764	dWE(1).Potential/dt < 1E-06 V/s
43.2057	-0.0581055	41.7	418	0.000356038
43.3057	-0.058075	41.8	419	0.000457764
43.4057	-0.058075	41.9	420	-0.000356038	dWE(1).Potential/dt < 1E-06 V/s
43.5057	-0.0581055	42	421	-0.000457764	dWE(1).Potential/dt < 1E-06 V/s
43.6057	-0.0581055	42.1	422	0.000356038
43.7057	-0.058075	42.2	423	0.000457764
43.8057	-0.0581055	42.3	424	-0.000915527	dWE(1).Potential/dt < 1E-06 V/s
43.9057	-0.0581055	42.4	425	0.000457764
44.0057	-0.0581055	42.5	426	-0.000101725	dWE(1).Potential/dt < 1E-06 V/s
44.1057	-0.0581055	42.6	427	0	dWE(1).Potential/dt < 1E-06 V/s
44.2057	-0.058075	42.7	428	0.000559489
44.3057	-0.0581055	42.8	429	-0.000915527	dWE(1).Potential/dt < 1E-06 V/s
44.4057	-0.058075	42.9	430	0.00101725
44.5057	-0.058075	43	431	-0.000457764	dWE(1).Potential/dt < 1E-06 V/s
44.6057	-0.058136	43.1	432	-0.00101725	dWE(1).Potential/dt < 1E-06 V/s
44.7057	-0.058075	43.2	433	0.00183105
44.8057	-0.058075	43.3	434	-0.000915527	dWE(1).Potential/dt < 1E-06 V/s
44.9057	-0.0581055	43.4	435	-0.000356038	dWE(1).Potential/dt < 1E-06 V/s
45.0057	-0.058075	43.5	436	0.000915527
45.1057	-0.058075	43.6	437	-0.000457764	dWE(1).Potential/dt < 1E-06 V/s
45.2057	-0.058075	43.7	438	0.000101725
45.3057	-0.058075	43.8	439	0	dWE(1).Potential/dt < 1E-06 V/s
45.4057	-0.058075	43.9	440	0	dWE(1).Potential/dt < 1E-06 V/s
45.5057	-0.058075	44	441	0	dWE(1).Potential/dt < 1E-06 V/s
45.6057	-0.0581055	44.1	442	-0.000559489	dWE(1).Potential/dt < 1E-06 V/s
45.7057	-0.0581055	44.2	443	0.000356038
45.8057	-0.058075	44.3	444	0.000457764
45.9057	-0.0581055	44.4	445	-0.000915527	dWE(1).Potential/dt < 1E-06 V/s
46.0057	-0.0581055	44.5	446	0.000457764
46.1057	-0.0581055	44.6	447	-0.000101725	dWE(1).Potential/dt < 1E-06 V/s
46.2057	-0.0581055	44.7	448	0	dWE(1).Potential/dt < 1E-06 V/s
46.3057	-0.0581055	44.8	449	0	dWE(1).Potential/dt < 1E-06 V/s
46.4057	-0.0581055	44.9	450	0	dWE(1).Potential/dt < 1E-06 V/s
46.5057	-0.0581055	45	451	0	dWE(1).Potential/dt < 1E-06 V/s , dWE(1).Potential/dt > -1E-06 V/s
46.6057	-0.0581055	45.1	452	0	dWE(1).Potential/dt < 1E-06 V/s , dWE(1).Potential/dt > -1E-06 V/s
46.7057	-0.0581055	45.2	453	0	dWE(1).Potential/dt < 1E-06 V/s , dWE(1).Potential/dt > -1E-06 V/s
46.8057	-0.0581055	45.3	454	0	dWE(1).Potential/dt < 1E-06 V/s , dWE(1).Potential/dt > -1E-06 V/s
46.9057	-0.0581055	45.4	455	0	dWE(1).Potential/dt < 1E-06 V/s , dWE(1).Potential/dt > -1E-06 V/s

File: Z_p27_1.txt
Index	Frequency (Hz)	Z' (Ω)	-Z'' (Ω)	Z (Ω)	-Phase (°)	Time (s)
1	1000000	2321.41	3230.8	3978.32	54.3018	132.896
2	794330	2949.23	3387.16	4491.19	48.9536	134.291
3	630960	3730.03	3569.65	5162.9	43.7414	135.696
4	501190	4506.11	3683.37	5819.98	39.2631	137.196
5	398110	5457.65	3754.95	6624.62	34.5286	142.226
6	316230	6071.82	3637.31	7077.92	30.9236	143.556
7	251190	6641.28	3350.59	7438.62	26.7714	148.477
8	199530	7247.45	3191.64	7919.1	23.7678	149.787
9	158490	7768.87	3005.85	8330.09	21.1519	151.182
10	125890	8238.97	2793.57	8699.69	18.7302	152.482
11	100000	8654.06	2576.75	9029.53	16.5809	153.902
12	79433	9021.97	2361.67	9325.96	14.6691	155.202
13	63096	9358.79	2146.19	9601.72	12.916	156.517
14	50119	9631.36	1959.87	9828.75	11.502	157.822
15	39811	9877.91	1761.8	10033.8	10.1128	159.127
16	31623	10086.8	1596.24	10212.3	8.99253	160.467
17	25119	10253.9	1440.57	10354.6	7.99716	161.762
18	19953	10415	1333.46	10500	7.29601	163.067
19	15849	10585.6	1219.5	10655.6	6.57171	164.392
20	12589	10736.2	1133.7	10795.9	6.02788	165.712
21	10000	10844.3	1077.76	10897.7	5.67571	167.942
22	7943.3	10969.4	1016.37	11016.4	5.29365	169.162
23	6309.6	11089.2	969.127	11131.5	4.99461	170.482
24	5011.9	11208.7	930.559	11247.3	4.74586	171.827
25	3981.1	11322.6	905.279	11358.7	4.57126	173.137
26	3162.3	11441.8	883.872	11475.9	4.41729	174.432
27	2511.9	11553.7	872.133	11586.6	4.3168	175.767
28	1995.3	11670.5	866.729	11702.7	4.24735	177.087
29	1584.9	11787.1	861.468	11818.5	4.18008	178.297
30	1258.9	11899.1	858.705	11930.1	4.12761	179.597
31	1000	12027	866.006	12058.1	4.11849	180.922
32	794.33	12143.7	871.086	12174.9	4.10287	182.342
33	630.96	12267.5	878.674	12298.9	4.09689	183.662
34	501.19	12395.5	886.883	12427.2	4.09248	184.997
35	398.11	12524.3	896.073	12556.3	4.09235	186.282
36	316.23	12659.6	908.797	12692.2	4.10606	187.602
37	251.19	12792.6	919.636	12825.6	4.11182	188.957
38	199.53	12927.9	932.325	12961.4	4.12489	190.182
39	158.49	13070.2	947.946	13104.5	4.14824	191.547
40	125.89	13211.5	962.152	13246.5	4.16532	192.962
41	100	13349.5	977.727	13385.2	4.18892	194.322
42	79.433	13492.6	991.769	13529	4.20396	195.732
43	63.096	13649.1	1001.46	13685.8	4.19641	197.212
44	50.119	13664.6	1082.28	13707.4	4.52858	207.148
45	39.811	13967.7	1043.8	14006.6	4.27373	216.243
46	31.623	14115.7	1053.19	14154.9	4.26701	218.548
47	25.119	14273.9	1080.47	14314.7	4.32881	220.133
48	19.953	14429.9	1103.62	14472	4.37354	222.098
49	15.849	14586.5	1117.49	14629.2	4.38096	224.073
50	12.589	14761.1	1135.44	14804.7	4.39857	226.058
51	10	14894.4	1150.03	14938.7	4.41518	228.348
52	7.9433	15070.4	1174.26	15116.1	4.45539	230.648
53	6.3096	15228.5	1236.9	15278.7	4.64353	233.063
54	5.0119	15403.2	1267.93	15455.3	4.70577	235.463
55	3.9811	15544	1306.58	15598.8	4.80482	237.933
56	3.1623	15690.6	1405.01	15753.4	5.11687	240.488
57	2.5119	16008	1527.07	16080.7	5.44918	243.198
58	1.9953	16016.4	1375.35	16075.3	4.90801	245.818
59	1.5849	16188	1725.99	16279.8	6.08596	248.538
60	1.2589	16546.2	1915.17	16656.7	6.60241	251.438
61	1	16475.7	2032.47	16600.6	7.03257	256.554
62	0.79433	16677.4	2288.68	16833.7	7.81403	261.829
63	0.63096	16854.4	2597.57	17053.4	8.76138	265.254
64	0.50119	17045	2968.07	17301.4	9.87796	269.114
65	0.39811	17253.9	3476.5	17600.6	11.3921	273.349
66	0.31623	17417	4064.41	17884.9	13.1354	278.114
67	0.25119	17703.1	4928.58	18376.3	15.5573	283.569
68	0.19953	17968.7	5870.73	18903.4	18.0932	289.809
69	0.15849	18333.6	7049.35	19642.2	21.0319	297.184
70	0.12589	18709.2	8288.71	20463	23.8948	305.784
71	0.1	18936.8	10222.5	21519.8	28.3611	315.94

File: Z_p28_1.txt
Index	Frequency (Hz)	Z' (Ω)	-Z'' (Ω)	Z (Ω)	-Phase (°)	Time (s)
1	1000000	2377.76	3199.18	3986.04	53.3787	73.1591
2	794330	3051.27	3339.13	4523.28	47.5792	74.4892
3	630960	3811.63	3477.79	5159.81	42.3778	75.8792
4	501190	4637.06	3552.86	5841.67	37.4589	77.3892
5	398110	5457.58	3501.29	6484.16	32.682	82.3243
6	316230	6152.91	3383.39	7021.79	28.8057	83.6443
7	251190	6608.11	3129.3	7311.61	25.3401	88.7944
8	199530	7146.9	2922.7	7721.42	22.2419	90.1144
9	158490	7609.23	2708.24	8076.82	19.5914	91.5445
10	125890	8034.18	2494.12	8412.41	17.2464	93.0045
11	100000	8395.5	2277.11	8698.83	15.1752	94.6245
12	79433	8705.95	2060.56	8946.48	13.316	96.0996
13	63096	9009.41	1841.88	9195.76	11.5543	97.5396
14	50119	9199.68	1674.51	9350.83	10.316	99.0996
15	39811	9402.46	1498.58	9521.14	9.05575	100.585
16	31623	9570.23	1357.41	9666.01	8.07281	102.025
17	25119	9724.55	1233.62	9802.49	7.22973	103.475
18	19953	9874.14	1118.31	9937.26	6.46161	104.81
19	15849	9992.16	1032.23	10045.3	5.89794	106.14
20	12589	10101.2	959.587	10146.7	5.42665	107.465
21	10000	10198.7	905.223	10238.8	5.07219	111.285
22	7943.3	10309.6	847.748	10344.4	4.70082	112.515
23	6309.6	10403.8	825.28	10436.5	4.53546	113.86
24	5011.9	10508.1	793.613	10538.1	4.31898	115.17
25	3981.1	10602.8	775.208	10631.1	4.18166	116.48
26	3162.3	10706.6	770.811	10734.3	4.11785	117.765
27	2511.9	10811.3	761.365	10838.1	4.02829	119.095
28	1995.3	10907.9	766.367	10934.8	4.01888	120.415
29	1584.9	11004.7	770.903	11031.6	4.00716	121.665
30	1258.9	11108.7	779.659	11136	4.0147	122.97
31	1000	11222	786.23	11249.5	4.00769	124.285
32	794.33	11332	795.526	11359.9	4.01568	125.73
33	630.96	11447.9	804.542	11476.1	4.02007	127.04
34	501.19	11561.1	815.895	11589.9	4.0368	128.375
35	398.11	11691	823.65	11719.9	4.02993	129.57
36	316.23	11805.9	838.689	11835.7	4.06345	130.885
37	251.19	11941.3	850.806	11971.6	4.07538	132.23
38	199.53	12061.1	864.411	12092	4.09934	133.45
39	158.49	12191.8	878.586	12223.4	4.12182	134.8
40	125.89	12328.7	888.922	12360.7	4.124	136.215
41	100	12463.3	898.404	12495.7	4.12296	137.505
42	79.433	12606	910.246	12638.9	4.13	138.915
43	63.096	12750.7	912.51	12783.4	4.09341	140.385
44	50.119	12902.7	998.655	12941.3	4.42582	141.865
45	39.811	13015.4	938.625	13049.2	4.12485	150.986
46	31.623	13164.1	951.471	13198.4	4.13402	152.621
47	25.119	13299.9	955.705	13334.2	4.1101	154.211
48	19.953	13447.3	959.227	13481.5	4.08012	156.116
49	15.849	13584.7	952.95	13618.1	4.01266	158.076
50	12.589	13730.4	949.362	13763.2	3.9553	160.081
51	10	13877.8	965.152	13911.4	3.9783	162.381
52	7.9433	13990.7	963.735	14023.9	3.94053	164.701
53	6.3096	14131.5	984.492	14165.7	3.98516	167.026
54	5.0119	14241.3	992.337	14275.9	3.98593	169.411
55	3.9811	14372	993.163	14406.3	3.95309	171.811
56	3.1623	14440.1	1016.79	14475.8	4.0278	174.316
57	2.5119	14600.8	1163.3	14647.1	4.55533	176.861
58	1.9953	14798.9	824.814	14821.8	3.19007	179.476
59	1.5849	14825.6	1297.65	14882.3	5.00221	182.176
60	1.2589	14919.7	1501.77	14995.1	5.74785	185.051
61	1	15009.6	1583.61	15092.9	6.0228	191.811
62	0.79433	15134	1806.05	15241.3	6.80535	195.041
63	0.63096	15239.5	2062.59	15378.4	7.70789	198.521
64	0.50119	15368.2	2450.97	15562.4	9.0614	202.322
65	0.39811	15490.3	2890.95	15757.7	10.5715	206.542
66	0.31623	15702	3479.18	16082.8	12.4935	211.322
67	0.25119	15868.2	4096.21	16388.3	14.4743	216.707
68	0.19953	16126.3	4878.64	16848.1	16.832	222.967
69	0.15849	16336.9	5922.89	17377.4	19.928	230.222
70	0.12589	16792.5	7257.2	18293.6	23.3725	238.762
71	0.1	17136.2	8497.53	19127.4	26.376	248.937

File: Z_p29_1.txt
Index	Frequency (Hz)	Z' (Ω)	-Z'' (Ω)	Z (Ω)	-Phase (°)	Time (s)
1	1000000	2240.68	2877.07	3646.66	52.0883	73.2382
2	794330	2807.24	3036.15	4135.07	47.2434	75.4432
3	630960	3415.38	3159.4	4652.6	42.7704	76.8782
4	501190	4134.14	3264.47	5267.63	38.2959	78.3682
5	398110	4894.61	3278.81	5891.33	33.8174	83.4183
6	316230	5554.69	3280.75	6451.19	30.5673	84.7434
7	251190	6006.48	3026.56	6725.91	26.7427	88.8034
8	199530	6538.67	2914.34	7158.75	24.0229	90.1485
9	158490	7034.82	2767.04	7559.44	21.4715	91.5535
10	125890	7476.19	2584.33	7910.26	19.069	92.9385
11	100000	7878.01	2392.94	8233.42	16.8961	94.4485
12	79433	8231.89	2193.62	8519.15	14.9214	96.3136
13	63096	8536.25	1980.41	8762.96	13.0615	97.7336
14	50119	8806.71	1798.22	8988.42	11.5404	99.0386
15	39811	9023.52	1609.18	9165.88	10.1114	100.394
16	31623	9221.75	1440.98	9333.65	8.88115	101.704
17	25119	9392.79	1302.73	9482.7	7.89623	103.034
18	19953	9546.56	1158.8	9616.63	6.92094	104.344
19	15849	9657.48	1056.57	9715.11	6.24356	105.669
20	12589	9778.06	969.161	9825.97	5.66043	106.994
21	10000	9887.02	894.467	9927.4	5.1694	110.834
22	7943.3	9989.75	841.198	10025.1	4.8133	112.069
23	6309.6	10075.6	788.929	10106.5	4.47716	113.404
24	5011.9	10178.4	748.988	10205.9	4.20859	114.759
25	3981.1	10265.1	722.875	10290.5	4.02814	116.199
26	3162.3	10346	716.929	10370.8	3.964	117.514
27	2511.9	10441.2	695.652	10464.3	3.81174	118.849
28	1995.3	10522.7	685.421	10545	3.72683	120.164
29	1584.9	10615.8	677.833	10637.4	3.65346	121.439
30	1258.9	10706.3	683.351	10728.1	3.65207	122.749
31	1000	10800.2	684.117	10821.8	3.62445	124.149
32	794.33	10891.9	680.349	10913.1	3.57427	125.614
33	630.96	10991.8	690.585	11013.4	3.59503	126.924
34	501.19	11087.9	693.796	11109.6	3.58045	128.284
35	398.11	11190.7	699.252	11212.5	3.57549	129.584
36	316.23	11291	709.596	11313.2	3.5961	131.064
37	251.19	11401.6	722.687	11424.5	3.62682	132.424
38	199.53	11512.3	729.933	11535.4	3.62796	133.679
39	158.49	11612.1	739.368	11635.6	3.64324	135.044
40	125.89	11724.6	750.241	11748.5	3.6613	136.484
41	100	11836.9	765.534	11861.6	3.70038	137.779
42	79.433	11949.7	774.75	11974.8	3.70953	139.184
43	63.096	12064.9	791.911	12090.8	3.75538	140.699
44	50.119	12338.4	789.019	12363.6	3.65898	142.174
45	39.811	12302.3	817.228	12329.5	3.8005	151.325
46	31.623	12421.4	835.733	12449.4	3.84917	152.99
47	25.119	12535.6	835.939	12563.4	3.81514	154.57
48	19.953	12670.7	854.598	12699.5	3.85856	156.49
49	15.849	12793	889.931	12823.9	3.9793	158.475
50	12.589	12925.5	890.182	12956.2	3.93974	160.455
51	10	13044.3	911.033	13076.1	3.99513	162.78
52	7.9433	13164.2	940.037	13197.7	4.08449	165.12
53	6.3096	13285.2	966.453	13320.3	4.16076	167.455
54	5.0119	13400.6	1025.76	13439.8	4.37721	169.935
55	3.9811	13555.9	1064.94	13597.7	4.49187	172.425
56	3.1623	13644.3	1151.97	13692.8	4.82597	175.045
57	2.5119	13883.2	1281.29	13942.2	5.27293	177.6
58	1.9953	13922.8	1124.19	13968.1	4.61634	180.22
59	1.5849	14096.3	1408.45	14166.5	5.70584	182.935
60	1.2589	14190.3	1594.04	14279.6	6.40932	185.89
61	1	14300.9	1768.5	14409.8	7.04963	190.98
62	0.79433	14460.3	2018.36	14600.5	7.94595	196.52
63	0.63096	14601.5	2286.78	14779.5	8.90093	199.96
64	0.50119	14766.1	2694.83	15010	10.3428	203.761
65	0.39811	14907.6	3167.54	15240.4	11.9957	208.001
66	0.31623	15143.2	3759.7	15603	13.9432	212.886
67	0.25119	15369	4407.26	15988.4	16.001	218.436
68	0.19953	15683.7	5250.9	16539.4	18.5105	224.756
69	0.15849	15960.3	6289.46	17154.8	21.5079	232.036
70	0.12589	16311.1	7709.4	18041.2	25.2977	240.561
71	0.1	16972.1	9128.06	19271	28.2726	250.786

File: Z_p30_1.txt
Index	Frequency (Hz)	Z' (Ω)	-Z'' (Ω)	Z (Ω)	-Phase (°)	Time (s)
1	1000000	2411.22	2661.63	3591.41	47.826	70.1321
2	794330	2923.07	2677.03	3963.69	42.4844	71.6121
3	630960	3554.85	2690.31	4458.11	37.1184	73.0821
4	501190	4132.49	2637.14	4902.25	32.5439	74.7422
5	398110	4709.61	2566.13	5363.34	28.5847	80.9173
6	316230	5190.32	2413.45	5724	24.938	82.2923
7	251190	5483.61	2175.05	5899.22	21.6356	86.5874
8	199530	5841.77	2023.69	6182.36	19.107	87.9824
9	158490	6147.2	1868.02	6424.76	16.903	89.3424
10	125890	6427.09	1720.94	6653.5	14.9901	90.6625
11	100000	6664.99	1566.83	6846.68	13.2291	92.0725
12	79433	6877.24	1431.8	7024.7	11.7606	93.4025
13	63096	7071.03	1285.89	7187	10.3068	94.8325
14	50119	7218.54	1176.36	7313.77	9.2558	96.1976
15	39811	7361.29	1065.52	7438.01	8.23618	97.5376
16	31623	7489	969.099	7551.44	7.37327	98.8476
17	25119	7591.57	897.76	7644.47	6.74433	100.178
18	19953	7707.37	816.151	7750.46	6.04465	101.498
19	15849	7798.91	775.419	7837.36	5.67806	102.823
20	12589	7888.82	715.634	7921.22	5.18339	104.133
21	10000	7968.63	682.404	7997.79	4.89466	105.528
22	7943.3	8052.2	655.289	8078.81	4.65249	106.863
23	6309.6	8137.8	631.613	8162.28	4.4381	108.178
24	5011.9	8214.85	616.439	8237.95	4.29141	109.493
25	3981.1	8289.02	606.379	8311.17	4.18399	110.828
26	3162.3	8364.57	600.754	8386.11	4.10801	112.188
27	2511.9	8444.41	598.309	8465.58	4.05278	113.533
28	1995.3	8520.96	594.612	8541.68	3.99176	114.853
29	1584.9	8608.82	602.277	8629.86	4.00192	116.038
30	1258.9	8691.78	608.725	8713.07	4.00614	117.348
31	1000	8772.51	613.312	8793.92	3.99921	118.668
32	794.33	8860.03	622.591	8881.88	4.01954	120.098
33	630.96	8949.91	630.417	8972.09	4.02917	121.433
34	501.19	9042.11	639.945	9064.73	4.04829	122.858
35	398.11	9137.75	649.48	9160.8	4.06555	125.683
36	316.23	9238.56	660.942	9262.18	4.09206	126.958
37	251.19	9330.84	669.118	9354.8	4.10168	128.298
38	199.53	9435.75	680.272	9460.24	4.12361	129.628
39	158.49	9543.1	692.408	9568.19	4.14987	131.013
40	125.89	9644	699.671	9669.34	4.14953	132.438
41	100	9713.16	710.227	9739.1	4.18202	133.828
42	79.433	9858.75	719.732	9884.99	4.17544	135.273
43	63.096	9960.61	731.905	9987.47	4.20254	136.758
44	50.119	10128.7	810.702	10161.1	4.5762	138.153
45	39.811	10181	737.978	10207.7	4.14588	147.359
46	31.623	10297.8	750.75	10325.1	4.1697	149.029
47	25.119	10412.8	748.268	10439.6	4.11024	150.614
48	19.953	10520.8	755.744	10547.9	4.10871	152.549
49	15.849	10636.7	753.462	10663.4	4.05183	154.514
50	12.589	10735	761.879	10762	4.05957	156.499
51	10	10846.7	760.794	10873.3	4.0122	158.799
52	7.9433	10947.6	771.317	10974.8	4.03012	161.134
53	6.3096	11059.3	777.616	11086.6	4.02205	163.469
54	5.0119	11169.5	795.696	11197.8	4.07478	165.854
55	3.9811	11261.6	807.675	11290.5	4.10219	168.349
56	3.1623	11329.4	877.498	11363.3	4.42891	170.894
57	2.5119	11333	1032.71	11380	5.20663	173.529
58	1.9953	11733.6	1181.5	11793	5.74995	176.229
59	1.5849	11560.1	1018.52	11604.9	5.03511	178.939
60	1.2589	11642.2	1095.47	11693.7	5.3754	181.899
61	1	11804	1263.2	11871.4	6.10822	188.669
62	0.79433	11910.4	1434.32	11996.4	6.86686	191.874
63	0.63096	11977.1	1634.94	12088.2	7.77317	195.384
64	0.50119	12089.5	1918.95	12240.9	9.01923	199.209
65	0.39811	12183.4	2269.27	12392.9	10.551	203.45
66	0.31623	12328.3	2708.92	12622.4	12.3928	208.195
67	0.25119	12426.9	3235.67	12841.2	14.5945	213.62
68	0.19953	12594.5	3850.45	13169.9	16.9997	219.915
69	0.15849	12762.6	4685.12	13595.4	20.1581	227.27
70	0.12589	13081.1	5711.21	14273.5	23.5861	235.885
71	0.1	13302	6717.38	14901.9	26.7934	246.065