Folder: Streamlit_cement_impedance/data/20200212

Note: README.md
# Software KDssZ version 1.0

This software tool works to analyze impedance measurements through a lumped circuital model.

## The repository contains:

- The Python module called [KDssZ.py](https://github.com/dantrica/Streamlit_cement_impedance/blob/c79735cefb679f8cb21de758db89e5011d7d15d4/KDssZ.py) contains the algorithms to optimize the electrical impedance measurements.
- The Python module called [appZ.py](https://github.com/dantrica/Streamlit_cement_impedance/blob/b421c1652a15b18d4e0220819822e362abc5bec6/appZ.py) contains the code to deploy the application on the Streamlit platform.
- All [data](https://github.com/dantrica/Streamlit_cement_impedance/tree/c79735cefb679f8cb21de758db89e5011d7d15d4/data) acquired during the experimental campaign is located in this repository Streamlit_cement_impedance/data/.
- The [Figures](https://github.com/dantrica/Streamlit_cement_impedance/tree/c79735cefb679f8cb21de758db89e5011d7d15d4/figures) folder contains an image describing the lumped circuit model.

## The left sidebar functionalities:

The user can upload the impedance measurements in format .txt. Moreover, this object contains the elements that will be presented in the left sidebar, such as i) the uploading file option, ii) the lumped circuit model, iii) Add and Remove buttons to move data in the Optimization zone, iv) Run and Reset buttons to start and clear the optimization.

## Project Description: 

$\texttt{KDssZ}$ has been developed to optimize experimental electrical impedance data to a lumped circuit model. This approach allows users to correlate the interactions among the components in the composite-electrodes, cement, nanoparticles, and pores with the measured impedance, which is analyzed across three frequency ranges: high, medium, and low. Although the software has been validated with impedance measurements from gold nanoparticles/cement-based composites, it can also be used to study the electrical properties of other cement-based composites. KDssZ is deployed on the Streamlit platform, and in line with the principles of open science, it allows researchers working on similar studies to use this tool to explore new research questions related to cement-based composites.

## Usage instructions:

The main functionalities of the software KDssZ are displayed in Figure~\ref{}, and enumerated according to the following list:

1. Push button \texttt{Browse Files} to upload \texttt{.txt} files with electrical impedance spectroscopy data.
2. Help menu explaining the format files to be received; help hints boxes to report whether a file was added previously or it is already in the optimization zone; and help tips on buttons.
3. Choosing the file data since Select tag.
4. Buttons $\texttt{Add data}$ and $\texttt{Remove}$, to add or remove data to the optimization zone.
5. Buttons $\texttt{Run}$ and $\texttt{Reset}$, to start the optimization, create the plots and return the DataFrame with the parameters.
6. Figures: wide mode and saving options.
7. T

File: OCP_p27_1.txt
Time (s)	WE(1).Potential (V)	Corrected time (s)	Index	dWE(1).Potential/dt (V/s)	Cutoffs	OCP value (V)
10.6989	-0.0268433	0	1	0	dWE(1).Potential/dt < 1E-06 V/s	-0.0275877
10.7989	-0.0268402	0.1	2	3.051e-05
10.8989	-0.0268463	0.2	3	-0.000106822	dWE(1).Potential/dt < 1E-06 V/s
10.9989	-0.0268463	0.3	4	8.13973e-05
11.0989	-0.0268433	0.4	5	3.56385e-05
11.1989	-0.0268494	0.5	6	-0.000147515	dWE(1).Potential/dt < 1E-06 V/s
11.2989	-0.0268433	0.6	7	0.000193274
11.3989	-0.0268524	0.7	8	-0.000259416	dWE(1).Potential/dt < 1E-06 V/s
11.4989	-0.0268433	0.8	9	0.000295036
11.5989	-0.0268524	0.9	10	-0.000305212	dWE(1).Potential/dt < 1E-06 V/s
11.6989	-0.0268585	1	11	2.54685e-05
11.7989	-0.0268524	1.1	12	0.00015255
11.8989	-0.0268585	1.2	13	-0.000203412	dWE(1).Potential/dt < 1E-06 V/s
11.9989	-0.0268585	1.3	14	9.15549e-05
12.0989	-0.0268555	1.4	15	3.56012e-05
12.1989	-0.0268494	1.5	16	7.63061e-05
12.2989	-0.0268585	1.6	17	-0.000228893	dWE(1).Potential/dt < 1E-06 V/s
12.3989	-0.0268555	1.7	18	0.00018311
12.4989	-0.0268555	1.8	19	-6.61174e-05	dWE(1).Potential/dt < 1E-06 V/s
12.5989	-0.0268555	1.9	20	1.017e-05
12.6989	-0.0268585	2	21	-5.59288e-05	dWE(1).Potential/dt < 1E-06 V/s
12.7989	-0.0268616	2.1	22	-2.03648e-05	dWE(1).Potential/dt < 1E-06 V/s
12.8989	-0.0268585	2.2	23	8.14345e-05
12.9989	-0.0268646	2.3	24	-0.000157691	dWE(1).Potential/dt < 1E-06 V/s
13.0989	-0.0268646	2.4	25	8.13662e-05
13.1989	-0.0268616	2.5	26	3.55764e-05
13.2989	-0.0268585	2.6	27	2.04083e-05
13.3989	-0.0268677	2.7	28	-0.000193323	dWE(1).Potential/dt < 1E-06 V/s
13.4989	-0.0268677	2.8	29	0.00011698
13.5989	-0.0268646	2.9	30	2.54436e-05
13.6989	-0.0268616	3	31	2.03028e-05
13.7989	-0.0268677	3.1	32	-0.000137301	dWE(1).Potential/dt < 1E-06 V/s
13.8989	-0.0268738	3.2	33	-3.05038e-05	dWE(1).Potential/dt < 1E-06 V/s
13.9989	-0.0268707	3.3	34	0.000106797
14.0989	-0.0268677	3.4	35	-1.24176e-08	dWE(1).Potential/dt < 1E-06 V/s
14.1989	-0.0268677	3.5	36	-2.54436e-05	dWE(1).Potential/dt < 1E-06 V/s
14.2989	-0.0268768	3.6	37	-0.000157679	dWE(1).Potential/dt < 1E-06 V/s
14.3989	-0.0268646	3.7	38	0.000330643
14.4989	-0.0268677	3.8	39	-0.000228943	dWE(1).Potential/dt < 1E-06 V/s
14.5989	-0.0268677	3.9	40	7.62999e-05
14.6989	-0.0268677	4	41	-1.01886e-05	dWE(1).Potential/dt < 1E-06 V/s
14.7989	-0.0268738	4.1	42	-0.00011187	dWE(1).Potential/dt < 1E-06 V/s
14.8989	-0.0268707	4.2	43	0.000127144
14.9989	-0.0268707	4.3	44	-5.59412e-05	dWE(1).Potential/dt < 1E-06 V/s
15.0989	-0.0268646	4.4	45	0.000122077
15.1989	-0.0268738	4.5	46	-0.000239063	dWE(1).Potential/dt < 1E-06 V/s
15.2989	-0.0268829	4.6	47	-4.07049e-05	dWE(1).Potential/dt < 1E-06 V/s
15.3989	-0.0268921	4.7	48	-9.15487e-05	dWE(1).Potential/dt < 1E-06 V/s
15.4989	-0.0268768	4.8	49	0.000356049
15.5989	-0.0268829	4.9	50	-0.000320436	dWE(1).Potential/dt < 1E-06 V/s
15.6989	-0.0268768	5	51	0.000233954
15.7989	-0.0268829	5.1	52	-0.000203444	dWE(1).Potential/dt < 1E-06 V/s
15.8989	-0.0268829	5.2	53	9.153e-05
15.9989	-0.0268799	5.3	54	3.56198e-05
16.0989	-0.026889	5.4	55	-0.000203462	dWE(1).Potential/dt < 1E-06 V/s
16.1989	-0.026889	5.5	56	0.000117011
16.2989	-0.0268829	5.6	57	8.13538e-05
16.3989	-0.026889	5.7	58	-0.000183072	dWE(1).Potential/dt < 1E-06 V/s
16.4989	-0.0268829	5.8	59	0.000203412
16.5989	-0.0268921	5.9	60	-0.000259391	dWE(1).Potential/dt < 1E-06 V/s
16.6989	-0.0268951	6	61	7.12397e-05
16.7989	-0.0268951	6.1	62	5.05396e-06
16.8989	-0.026886	6.2	63	0.00015766
16.9989	-0.0268951	6.3	64	-0.000274634	dWE(1).Potential/dt < 1E-06 V/s
17.0989	-0.0268951	6.4	65	0.000137307
17.1989	-0.0269012	6.5	66	-0.00014243	dWE(1).Potential/dt < 1E-06 V/s
17.2989	-0.026889	6.6	67	0.000295036
17.3989	-0.0268921	6.7	68	-0.00021873	dWE(1).Potential/dt < 1E-06 V/s
17.4989	-0.0269043	6.8	69	-0.000147446	dWE(1).Potential/dt < 1E-06 V/s
17.5989	-0.0268982	6.9	70	0.000244093
17.6989	-0.0269012	7	71	-0.00016783	dWE(1).Potential/dt < 1E-06 V/s
17.7989	-0.0269073	7.1	72	-5.59661e-05	dWE(1).Potential/dt < 1E-06 V/s
17.8989	-0.0269043	7.2	73	0.000117036
17.9989	-0.0269012	7.3	74	-2.48352e-08	dWE(1).Potential/dt < 1E-06 V/s
18.0989	-0.0269073	7.4	75	-0.000137332	dWE(1).Potential/dt < 1E-06 V/s
18.1989	-0.0269073	7.5	76	8.13973e-05
18.2989	-0.0269073	7.6	77	-2.034e-05	dWE(1).Potential/dt < 1E-06 V/s
18.3989	-0.0269165	7.7	78	-0.00016783	dWE(1).Potential/dt < 1E-06 V/s
18.4989	-0.0269165	7.8	79	0.000106797
18.5989	-0.0269043	7.9	80	0.000193298
18.6989	-0.0269104	8	81	-0.000254312	dWE(1).Potential/dt < 1E-06 V/s
18.7989	-0.0269165	8.1	82	-2.48352e-08	dWE(1).Potential/dt < 1E-06 V/s
18.8989	-0.0269165	8.2	83	5.08749e-05
18.9989	-0.0269165	8.3	84	-2.03462e-05	dWE(1).Potential/dt < 1E-06 V/s
19.0989	-0.0269104	8.4	85	0.000111907
19.1989	-0.0269165	8.5	86	-0.000183135	dWE(1).Potential/dt < 1E-06 V/s
19.2989	-0.0269165	8.6	87	9.15673e-05
19.3989	-0.0269165	8.7	88	-2.03462e-05	dWE(1).Potential/dt < 1E-06 V/s
19.4989	-0.0269196	8.8	89	-5.59288e-05	dWE(1).Potential/dt < 1E-06 V/s
19.5989	-0.0269257	8.9	90	-7.62937e-05	dWE(1).Potential/dt < 1E-06 V/s
19.6989	-0.0269165	9	91	0.000228856
19.7989	-0.0269196	9.1	92	-0.000183072	dWE(1).Potential/dt < 1E-06 V/s
19.8989	-0.0269196	9.2	93	6.61299e-05
19.9989	-0.0269226	9.3	94	-6.61361e-05	dWE(1).Potential/dt < 1E-06 V/s
20.0989	-0.0269226	9.4	95	3.56261e-05
20.1989	-0.0269348	9.5	96	-0.000233935	dWE(1).Potential/dt < 1E-06 V/s
20.2989	-0.0269348	9.6	97	0.000142411
20.3989	-0.0269318	9.7	98	1.5255e-05
20.4989	-0.0269226	9.8	99	0.000132235
20.5989	-0.0269318	9.9	100	-0.000264457	dWE(1).Potential/dt < 1E-06 V/s
20.6989	-0.0269318	10	101	0.000137314
20.7989	-0.0269379	10.1	102	-0.000142424	dWE(1).Potential/dt < 1E-06 V/s
20.8989	-0.0269348	10.2	103	0.000127206
20.9989	-0.0269348	10.3	104	-5.59536e-05	dWE(1).Potential/dt < 1E-06 V/s
21.0989	-0.0269409	10.4	105	-0.000101719	dWE(1).Potential/dt < 1E-06 V/s
21.1989	-0.026944	10.5	106	1.52115e-05
21.2989	-0.026944	10.6	107	1.52612e-05
21.3989	-0.0269348	10.7	108	0.000157697
21.4989	-0.0269379	10.8	109	-0.000162782	dWE(1).Potential/dt < 1E-06 V/s
21.5989	-0.026947	10.9	110	-0.000101688	dWE(1).Potential/dt < 1E-06 V/s
21.6989	-0.0269501	11	111	4.06924e-05
21.7989	-0.0269379	11.1	112	0.000228862
21.8989	-0.0269501	11.2	113	-0.000376327	dWE(1).Potential/dt < 1E-06 V/s
21.9989	-0.026947	11.3	114	0.000239026
22.0989	-0.0269501	11.4	115	-0.000132216	dWE(1).Potential/dt < 1E-06 V/s
22.1989	-0.026947	11.5	116	0.000101712
22.2989	-0.0269501	11.6	117	-0.0001017	dWE(1).Potential/dt < 1E-06 V/s
22.3989	-0.0269501	11.7	118	4.57836e-05
22.4989	-0.0269531	11.8	119	-6.61361e-05	dWE(1).Potential/dt < 1E-06 V/s
22.5989	-0.0269623	11.9	120	-0.00013221	dWE(1).Potential/dt < 1E-06 V/s
22.6989	-0.0269531	12	121	0.000264457
22.7989	-0.0269562	12.1	122	-0.000193236	dWE(1).Potential/dt < 1E-06 V/s
22.8989	-0.0269592	12.2	123	1.01079e-05
22.9989	-0.0269623	12.3	124	-3.04914e-05	dWE(1).Potential/dt < 1E-06 V/s
23.0989	-0.0269623	12.4	125	2.5425e-05
23.1989	-0.0269653	12.5	126	-6.60988e-05	dWE(1).Potential/dt < 1E-06 V/s
23.2989	-0.0269653	12.6	127	3.56136e-05
23.3989	-0.0269623	12.7	128	4.57712e-05
23.4989	-0.0269653	12.8	129	-9.153e-05	dWE(1).Potential/dt < 1E-06 V/s
23.5989	-0.0269653	12.9	130	4.57836e-05
23.6989	-0.0269714	13	131	-0.000122065	dWE(1).Potential/dt < 1E-06 V/s
23.7989	-0.0269653	13.1	132	0.000183097
23.8989	-0.0269623	13.2	133	-3.56012e-05	dWE(1).Potential/dt < 1E-06 V/s
[...]
124.499	-0.0275696	113.8	1139	1.01576e-05
124.599	-0.0275757	113.9	1140	-0.00011187	dWE(1).Potential/dt < 1E-06 V/s
124.699	-0.0275757	114	1141	7.12149e-05
124.799	-0.0275665	114.1	1142	0.000147509
124.899	-0.0275604	114.2	1143	5.07879e-06
124.999	-0.0275696	114.3	1144	-0.000208553	dWE(1).Potential/dt < 1E-06 V/s
125.099	-0.0275665	114.4	1145	0.000183128
125.199	-0.0275726	114.5	1146	-0.000178056	dWE(1).Potential/dt < 1E-06 V/s
125.299	-0.0275726	114.6	1147	8.13973e-05
125.399	-0.0275787	114.7	1148	-0.000132254	dWE(1).Potential/dt < 1E-06 V/s
125.499	-0.0275757	114.8	1149	0.000127206
125.599	-0.0275665	114.9	1150	0.000111882
125.699	-0.0275787	115	1151	-0.000320467	dWE(1).Potential/dt < 1E-06 V/s
125.799	-0.0275757	115.1	1152	0.000228943
125.899	-0.0275757	115.2	1153	-7.62999e-05	dWE(1).Potential/dt < 1E-06 V/s
125.999	-0.0275787	115.3	1154	-4.57899e-05	dWE(1).Potential/dt < 1E-06 V/s
126.099	-0.0275848	115.4	1155	-7.62812e-05	dWE(1).Potential/dt < 1E-06 V/s
126.199	-0.0275787	115.5	1156	0.000172915
126.299	-0.0275818	115.6	1157	-0.000147465	dWE(1).Potential/dt < 1E-06 V/s
126.399	-0.0275818	115.7	1158	5.59164e-05
126.499	-0.0275818	115.8	1159	-1.01762e-05	dWE(1).Potential/dt < 1E-06 V/s
126.599	-0.0275848	115.9	1160	-5.59847e-05	dWE(1).Potential/dt < 1E-06 V/s
126.699	-0.0275818	116	1161	9.15859e-05
126.799	-0.0275848	116.1	1162	-0.000101781	dWE(1).Potential/dt < 1E-06 V/s
126.899	-0.0275787	116.2	1163	0.000157691
126.999	-0.0275787	116.3	1164	-8.13662e-05	dWE(1).Potential/dt < 1E-06 V/s
127.099	-0.0275879	116.4	1165	-0.000147484	dWE(1).Potential/dt < 1E-06 V/s
127.199	-0.0275787	116.5	1166	0.000274634
127.299	-0.0275818	116.6	1167	-0.000193236	dWE(1).Potential/dt < 1E-06 V/s
127.399	-0.0275848	116.7	1168	1.01079e-05
127.499	-0.0275818	116.8	1169	8.14159e-05
127.599	-0.0275879	116.9	1170	-0.00015771	dWE(1).Potential/dt < 1E-06 V/s
127.699	-0.0275818	117	1171	0.000193305
127.799	-0.0275848	117.1	1172	-0.000147552	dWE(1).Potential/dt < 1E-06 V/s
127.899	-0.0275818	117.2	1173	0.000111932
127.999	-0.0275879	117.3	1174	-0.00015771	dWE(1).Potential/dt < 1E-06 V/s
128.099	-0.027597	117.4	1175	-8.64388e-05	dWE(1).Potential/dt < 1E-06 V/s
128.199	-0.0275848	117.5	1176	0.00031021
128.299	-0.0275909	117.6	1177	-0.000284785	dWE(1).Potential/dt < 1E-06 V/s
128.399	-0.0275848	117.7	1178	0.000223759
128.499	-0.027594	117.8	1179	-0.000259391	dWE(1).Potential/dt < 1E-06 V/s
128.599	-0.0275909	117.9	1180	0.000183147
128.699	-0.027594	118	1181	-0.000122102	dWE(1).Potential/dt < 1E-06 V/s
128.799	-0.0275879	118.1	1182	0.00015771
128.899	-0.0275879	118.2	1183	-8.13973e-05	dWE(1).Potential/dt < 1E-06 V/s
128.999	-0.027594	118.3	1184	-9.15611e-05	dWE(1).Potential/dt < 1E-06 V/s
129.099	-0.0275909	118.4	1185	0.000127206
129.199	-0.027597	118.5	1186	-0.000167861	dWE(1).Potential/dt < 1E-06 V/s
129.299	-0.027594	118.6	1187	0.000137295
129.399	-0.0276001	118.7	1188	-0.000167824	dWE(1).Potential/dt < 1E-06 V/s
129.499	-0.027597	118.8	1189	0.000137332
129.599	-0.0275909	118.9	1190	5.5935e-05
129.699	-0.0276001	119	1191	-0.000228893	dWE(1).Potential/dt < 1E-06 V/s
129.799	-0.027597	119.1	1192	0.000183128
129.899	-0.0276031	119.2	1193	-0.000178056	dWE(1).Potential/dt < 1E-06 V/s
129.999	-0.027597	119.3	1194	0.000193305
130.099	-0.0275909	119.4	1195	2.03338e-05
130.199	-0.027597	119.5	1196	-0.000162745	dWE(1).Potential/dt < 1E-06 V/s
130.299	-0.027594	119.6	1197	0.000147465
130.399	-0.027594	119.7	1198	-5.59164e-05	dWE(1).Potential/dt < 1E-06 V/s
130.499	-0.0276001	119.8	1199	-0.000101731	dWE(1).Potential/dt < 1E-06 V/s
130.599	-0.0276031	119.9	1200	1.5255e-05

File: OCP_p28_1.txt
Time (s)	WE(1).Potential (V)	Corrected time (s)	Index	dWE(1).Potential/dt (V/s)	Cutoffs	OCP value (V)
4.4598	0.00218201	0	1	0	dWE(1).Potential/dt < 1E-06 V/s	0.000862959
4.5598	0.00217896	0.1	2	-3.05171e-05	dWE(1).Potential/dt < 1E-06 V/s
4.6598	0.00217896	0.2	3	1.52597e-05
4.7598	0.0021759	0.3	4	-6.61209e-05	dWE(1).Potential/dt < 1E-06 V/s
4.8598	0.00217285	0.4	5	-2.03471e-05	dWE(1).Potential/dt < 1E-06 V/s
4.9598	0.00217285	0.5	6	2.54306e-05
5.0598	0.0021759	0.6	7	4.57792e-05
5.1598	0.00216675	0.7	8	-0.000203452	dWE(1).Potential/dt < 1E-06 V/s
5.2598	0.00216675	0.8	9	0.000116985
5.3598	0.0021698	0.9	10	2.54298e-05
5.4598	0.00216064	1	11	-0.000203445	dWE(1).Potential/dt < 1E-06 V/s
5.5598	0.00215759	1.1	12	6.10296e-05
5.6598	0.00215149	1.2	13	-0.00010681	dWE(1).Potential/dt < 1E-06 V/s
5.7598	0.00215759	1.3	14	0.00017293
5.8598	0.00215149	1.4	15	-0.000203449	dWE(1).Potential/dt < 1E-06 V/s
5.9598	0.00215149	1.5	16	9.15522e-05
6.0598	0.00214844	1.6	17	-7.62925e-05	dWE(1).Potential/dt < 1E-06 V/s
6.1598	0.00214844	1.7	18	3.56014e-05
6.2598	0.00214539	1.8	19	-6.61209e-05	dWE(1).Potential/dt < 1E-06 V/s
6.3598	0.00213928	1.9	20	-7.62948e-05	dWE(1).Potential/dt < 1E-06 V/s
6.4598	0.00213623	2	21	5.09046e-06
6.5598	0.00213928	2.1	22	7.12043e-05
6.6598	0.00213623	2.2	23	-0.000101721	dWE(1).Potential/dt < 1E-06 V/s
6.7598	0.00213318	2.3	24	-1.01732e-05	dWE(1).Potential/dt < 1E-06 V/s
6.8598	0.00213318	2.4	25	2.5429e-05
6.9598	0.00212708	2.5	26	-0.000122075	dWE(1).Potential/dt < 1E-06 V/s
7.0598	0.00212402	2.6	27	1.52605e-05
7.1598	0.00211792	2.7	28	-9.66349e-05	dWE(1).Potential/dt < 1E-06 V/s
7.2598	0.00212402	2.8	29	0.000172927
7.3598	0.00212402	2.9	30	-9.15483e-05	dWE(1).Potential/dt < 1E-06 V/s
7.4598	0.00210571	3	31	-0.000315347	dWE(1).Potential/dt < 1E-06 V/s
7.5598	0.00211792	3.1	32	0.000437419
7.6598	0.00211182	3.2	33	-0.000315355	dWE(1).Potential/dt < 1E-06 V/s
7.7598	0.00210876	3.3	34	5.59508e-05
7.8598	0.00210571	3.4	35	-4.06872e-05	dWE(1).Potential/dt < 1E-06 V/s
7.9598	0.00210876	3.5	36	8.13775e-05
8.0598	0.00209656	3.6	37	-0.000269571	dWE(1).Potential/dt < 1E-06 V/s
8.1598	0.00209961	3.7	38	0.000208539
8.2598	0.00209961	3.8	39	-7.62932e-05	dWE(1).Potential/dt < 1E-06 V/s
8.3598	0.00209045	3.9	40	-0.000157675	dWE(1).Potential/dt < 1E-06 V/s
8.4598	0.00209351	4	41	0.00016276
8.5598	0.00209351	4.1	42	-6.61193e-05	dWE(1).Potential/dt < 1E-06 V/s
8.6598	0.0020874	4.2	43	-0.000101722	dWE(1).Potential/dt < 1E-06 V/s
8.7598	0.00208435	4.3	44	1.52559e-05
8.8598	0.0020874	4.4	45	7.12098e-05
8.9598	0.0020752	4.5	46	-0.000269575	dWE(1).Potential/dt < 1E-06 V/s
9.0598	0.00207825	4.6	47	0.000208537
9.1598	0.0020813	4.7	48	-2.0344e-05	dWE(1).Potential/dt < 1E-06 V/s
9.2598	0.00207825	4.8	49	-8.13821e-05	dWE(1).Potential/dt < 1E-06 V/s
9.3598	0.0020752	4.9	50	-1.01693e-05	dWE(1).Potential/dt < 1E-06 V/s
9.4598	0.00207825	5	51	8.13775e-05
9.5598	0.00207214	5.1	52	-0.000157669	dWE(1).Potential/dt < 1E-06 V/s
9.6598	0.00207214	5.2	53	8.13759e-05
9.7598	0.00206604	5.3	54	-0.000132247	dWE(1).Potential/dt < 1E-06 V/s
9.8598	0.00206299	5.4	55	1.52605e-05
9.9598	0.00205994	5.5	56	-4.06872e-05	dWE(1).Potential/dt < 1E-06 V/s
10.0598	0.00205688	5.6	57	-3.05179e-05	dWE(1).Potential/dt < 1E-06 V/s
10.1598	0.00205994	5.7	58	8.13767e-05
10.2598	0.00205383	5.8	59	-0.00015767	dWE(1).Potential/dt < 1E-06 V/s
10.3598	0.00205078	5.9	60	2.54275e-05
10.4598	0.00205383	6	61	7.12121e-05
10.5598	0.00205078	6.1	62	-0.00010173	dWE(1).Potential/dt < 1E-06 V/s
10.6598	0.00205078	6.2	63	4.57761e-05
10.7598	0.00204468	6.3	64	-0.00012207	dWE(1).Potential/dt < 1E-06 V/s
10.8598	0.00204468	6.4	65	7.12074e-05
10.9598	0.00204468	6.5	66	-2.03448e-05	dWE(1).Potential/dt < 1E-06 V/s
11.0598	0.00203857	6.6	67	-0.000111895	dWE(1).Potential/dt < 1E-06 V/s
11.1598	0.00203552	6.7	68	1.52551e-05
11.2598	0.00203247	6.8	69	-4.06895e-05	dWE(1).Potential/dt < 1E-06 V/s
11.3598	0.00202942	6.9	70	-3.05148e-05	dWE(1).Potential/dt < 1E-06 V/s
11.4598	0.00202637	7	71	-3.05179e-05	dWE(1).Potential/dt < 1E-06 V/s
11.5598	0.00202332	7.1	72	-3.05187e-05	dWE(1).Potential/dt < 1E-06 V/s
11.6598	0.00202332	7.2	73	2.54344e-05
11.7598	0.00202026	7.3	74	-6.61247e-05	dWE(1).Potential/dt < 1E-06 V/s
11.8598	0.00202026	7.4	75	3.56029e-05
11.9598	0.00201721	7.5	76	-6.61224e-05	dWE(1).Potential/dt < 1E-06 V/s
12.0598	0.00202026	7.6	77	9.15538e-05
12.1598	0.00201111	7.7	78	-0.000213622	dWE(1).Potential/dt < 1E-06 V/s
12.2598	0.00201721	7.8	79	0.000228877
12.3598	0.00200195	7.9	80	-0.000381465	dWE(1).Potential/dt < 1E-06 V/s
12.4598	0.00200195	8	81	0.000198365
12.5598	0.0019989	8.1	82	-0.00010681	dWE(1).Potential/dt < 1E-06 V/s
12.6598	0.002005	8.2	83	0.000147498
12.7598	0.00200195	8.3	84	-0.000137329	dWE(1).Potential/dt < 1E-06 V/s
12.8598	0.0019989	8.4	85	3.10441e-09	dWE(1).Potential/dt < 1E-06 V/s
12.9598	0.00199585	8.5	86	-3.05179e-05	dWE(1).Potential/dt < 1E-06 V/s
13.0598	0.0019928	8.6	87	-3.05187e-05	dWE(1).Potential/dt < 1E-06 V/s
13.1598	0.00199585	8.7	88	8.13821e-05
13.2598	0.0019928	8.8	89	-0.000101726	dWE(1).Potential/dt < 1E-06 V/s
13.3598	0.00198059	8.9	90	-0.000178018	dWE(1).Potential/dt < 1E-06 V/s
13.4598	0.00198364	9	91	0.000188189
13.5598	0.00197754	9.1	92	-0.000188188	dWE(1).Potential/dt < 1E-06 V/s
13.6598	0.00198975	9.2	93	0.000305172
13.7598	0.00198364	9.3	94	-0.000274657	dWE(1).Potential/dt < 1E-06 V/s
13.8598	0.00198059	9.4	95	5.59493e-05
13.9598	0.00198059	9.5	96	1.52566e-05
14.0598	0.00196838	9.6	97	-0.00023397	dWE(1).Potential/dt < 1E-06 V/s
14.1598	0.00197754	9.7	98	0.000310267
14.2598	0.00197144	9.8	99	-0.000259402	dWE(1).Potential/dt < 1E-06 V/s
14.3598	0.00196838	9.9	100	4.57808e-05
14.4598	0.00197449	10	101	0.000127152
14.5598	0.00197144	10.1	102	-0.000137329	dWE(1).Potential/dt < 1E-06 V/s
14.6598	0.00196228	10.2	103	-0.000111892	dWE(1).Potential/dt < 1E-06 V/s
14.7598	0.00195923	10.3	104	4.06849e-05
14.8598	0.00195923	10.4	105	5.0858e-06
14.9598	0.00195618	10.5	106	-6.61224e-05	dWE(1).Potential/dt < 1E-06 V/s
15.0598	0.001953125	10.6	107	-2.03417e-05	dWE(1).Potential/dt < 1E-06 V/s
15.1598	0.00195923	10.7	108	0.000137325
15.2598	0.00195007	10.8	109	-0.000249224	dWE(1).Potential/dt < 1E-06 V/s
15.3598	0.00194702	10.9	110	7.12028e-05
15.4598	0.00195007	11	111	6.10374e-05
15.5598	0.00195007	11.1	112	-4.57784e-05	dWE(1).Potential/dt < 1E-06 V/s
15.6598	0.00194092	11.2	113	-0.000157677	dWE(1).Potential/dt < 1E-06 V/s
15.7598	0.00194702	11.3	114	0.000218714
15.8598	0.00194092	11.4	115	-0.000213628	dWE(1).Potential/dt < 1E-06 V/s
15.9598	0.00194397	11.5	116	0.000147507
16.0598	0.00194092	11.6	117	-0.0001119	dWE(1).Potential/dt < 1E-06 V/s
16.1598	0.00193787	11.7	118	-1.01693e-05	dWE(1).Potential/dt < 1E-06 V/s
16.2598	0.00193176	11.8	119	-8.64691e-05	dWE(1).Potential/dt < 1E-06 V/s
16.3598	0.00193481	11.9	120	0.000116984
16.4598	0.00193481	12	121	-5.59508e-05	dWE(1).Potential/dt < 1E-06 V/s
16.5598	0.00193176	12.1	122	-4.57788e-05	dWE(1).Potential/dt < 1E-06 V/s
16.6598	0.00192871	12.2	123	-2.0344e-05	dWE(1).Potential/dt < 1E-06 V/s
16.7598	0.00193176	12.3	124	8.13814e-05
16.8598	0.00192566	12.4	125	-0.000157677	dWE(1).Potential/dt < 1E-06 V/s
16.9598	0.00191956	12.5	126	-3.05121e-05	dWE(1).Potential/dt < 1E-06 V/s
17.0598	0.00192261	12.6	127	0.000106806
17.1598	0.00191956	12.7	128	-0.000111895	dWE(1).Potential/dt < 1E-06 V/s
[...]
118.46	0.000888062	114	1141	5.82077e-10	dWE(1).Potential/dt < 1E-06 V/s
118.56	0.00088501	114.1	1142	-5.59487e-05	dWE(1).Potential/dt < 1E-06 V/s
118.66	0.00088501	114.2	1143	3.56035e-05
118.76	0.000881958	114.3	1144	-6.61218e-05	dWE(1).Potential/dt < 1E-06 V/s
118.86	0.000881958	114.4	1145	3.56029e-05
118.96	0.000891113	114.5	1146	0.000157675
119.06	0.000878906	114.6	1147	-0.00033061	dWE(1).Potential/dt < 1E-06 V/s
119.16	0.000875854	114.7	1148	0.000116988
119.26	0.000875854	114.8	1149	-5.08852e-06	dWE(1).Potential/dt < 1E-06 V/s
119.36	0.000881958	114.9	1150	0.000101724
119.46	0.000869751	115	1151	-0.000295003	dWE(1).Potential/dt < 1E-06 V/s
119.56	0.000878906	115.1	1152	0.000330607
119.66	0.00088501	115.2	1153	-3.5602e-05	dWE(1).Potential/dt < 1E-06 V/s
119.76	0.000878906	115.3	1154	-0.00015259	dWE(1).Potential/dt < 1E-06 V/s
119.86	0.000872803	115.4	1155	-2.03428e-05	dWE(1).Potential/dt < 1E-06 V/s
119.96	0.000875854	115.5	1156	0.000106812
120.06	0.000881958	115.6	1157	5.59465e-05
120.16	0.000875854	115.7	1158	-0.000172932	dWE(1).Potential/dt < 1E-06 V/s
120.26	0.000872803	115.8	1159	3.56026e-05
120.36	0.000869751	115.9	1160	-4.06886e-05	dWE(1).Potential/dt < 1E-06 V/s
120.46	0.000866699	116	1161	-3.05183e-05	dWE(1).Potential/dt < 1E-06 V/s
120.56	0.000869751	116.1	1162	8.13812e-05
120.66	0.000872803	116.2	1163	1.01724e-05
120.76	0.000866699	116.3	1164	-0.000137329	dWE(1).Potential/dt < 1E-06 V/s
120.86	0.000872803	116.4	1165	0.000193279
120.96	0.000863647	116.5	1166	-0.0002594	dWE(1).Potential/dt < 1E-06 V/s
121.06	0.000866699	116.6	1167	0.000183105
121.16	0.000869751	116.7	1168	-1.01718e-05	dWE(1).Potential/dt < 1E-06 V/s
121.26	0.000866699	116.8	1169	-8.1381e-05	dWE(1).Potential/dt < 1E-06 V/s
121.36	0.000860596	116.9	1170	-6.61199e-05	dWE(1).Potential/dt < 1E-06 V/s
121.46	0.000866699	117	1171	0.000172932
121.56	0.000863647	117.1	1172	-0.000147501	dWE(1).Potential/dt < 1E-06 V/s
121.66	0.000863647	117.2	1173	5.59481e-05
121.76	0.000863647	117.3	1174	-1.0173e-05	dWE(1).Potential/dt < 1E-06 V/s
121.86	0.000860596	117.4	1175	-5.59481e-05	dWE(1).Potential/dt < 1E-06 V/s
121.96	0.000857544	117.5	1176	-2.03451e-05	dWE(1).Potential/dt < 1E-06 V/s
122.06	0.000860596	117.6	1177	8.13802e-05
122.16	0.000857544	117.7	1178	-0.000101725	dWE(1).Potential/dt < 1E-06 V/s
122.26	0.000857544	117.8	1179	4.57759e-05
122.36	0.000863647	117.9	1180	0.000101724
122.46	0.000860596	118	1181	-0.000127155	dWE(1).Potential/dt < 1E-06 V/s
122.56	0.000857544	118.1	1182	-1.94026e-10	dWE(1).Potential/dt < 1E-06 V/s
122.66	0.000857544	118.2	1183	2.5431e-05
122.76	0.00085144	118.3	1184	-0.000122071	dWE(1).Potential/dt < 1E-06 V/s
122.86	0.000860596	118.4	1185	0.000239057
122.96	0.000854492	118.5	1186	-0.000239055	dWE(1).Potential/dt < 1E-06 V/s
123.06	0.00085144	118.6	1187	4.57763e-05
123.16	0.000854492	118.7	1188	7.12086e-05
123.26	0.000854492	118.8	1189	-4.57769e-05	dWE(1).Potential/dt < 1E-06 V/s
123.36	0.00085144	118.9	1190	-4.57767e-05	dWE(1).Potential/dt < 1E-06 V/s
123.46	0.000845337	119	1191	-7.62925e-05	dWE(1).Potential/dt < 1E-06 V/s
123.56	0.000854492	119.1	1192	0.000228881
123.66	0.00085144	119.2	1193	-0.000183106	dWE(1).Potential/dt < 1E-06 V/s
123.76	0.000857544	119.3	1194	0.000178021
123.86	0.000848389	119.4	1195	-0.000249229	dWE(1).Potential/dt < 1E-06 V/s
123.96	0.00085144	119.5	1196	0.000183106
124.06	0.000854492	119.6	1197	-1.01718e-05	dWE(1).Potential/dt < 1E-06 V/s
124.16	0.00085144	119.7	1198	-8.1381e-05	dWE(1).Potential/dt < 1E-06 V/s
124.26	0.000845337	119.8	1199	-6.61199e-05	dWE(1).Potential/dt < 1E-06 V/s
124.36	0.000848389	119.9	1200	0.000116983