Folder: Streamlit_cement_impedance/data/20200504 (part 6)

File: Z_p44_2.txt
Index	Frequency (Hz)	Z' (Ω)	-Z'' (Ω)	Z (Ω)	-Phase (°)	Time (s)
1	1000000	2044.97	1059.32	2303.05	27.3846	214.419
2	794330	2163.85	958.774	2366.74	23.8975	215.719
3	630960	2319.57	877.872	2480.13	20.7298	217.079
4	501190	2463.05	799.392	2589.53	17.981	218.569
5	398110	2590.86	718.724	2688.7	15.5044	219.974
6	316230	2708.66	650.031	2785.56	13.4948	221.379
7	251190	2758.27	547.86	2812.15	11.2341	222.694
8	199530	2852.41	497.038	2895.39	9.88466	224.059
9	158490	2926.13	444.827	2959.75	8.64386	225.409
10	125890	2986.57	396.802	3012.82	7.56811	226.689
11	100000	3037.03	352.02	3057.36	6.61161	228.154
12	79433	3078.31	312.563	3094.13	5.7978	229.459
13	63096	3113.23	277.701	3125.59	5.0973	230.839
14	50119	3145.2	247.471	3154.92	4.49888	232.189
15	39811	3170.28	221.35	3178	3.99393	233.579
16	31623	3193.45	199.035	3199.65	3.5664	234.889
17	25119	3214.91	180.921	3220	3.22095	236.189
18	19953	3231.61	165.511	3235.85	2.93192	237.469
19	15849	3249.18	153.173	3252.79	2.69905	238.749
20	12589	3266.43	143.495	3269.58	2.5154	240.089
21	10000	3281.49	135.797	3284.3	2.3697	241.359
22	7943.3	3297.47	129.953	3300.03	2.25686	242.619
23	6309.6	3312.1	125.472	3314.47	2.1695	243.904
24	5011.9	3327.66	122.445	3329.91	2.10732	245.259
25	3981.1	3343.34	120.306	3345.5	2.06082	246.514
26	3162.3	3360.23	119.128	3362.34	2.03042	247.749
27	2511.9	3375.9	118.557	3377.98	2.01133	249.044
28	1995.3	3388.93	118.301	3390.99	1.99927	250.374
29	1584.9	3405.25	119.011	3407.33	2.00163	251.604
30	1258.9	3422.01	120.577	3424.14	2.01802	252.839
31	1000	3438.24	121.952	3440.41	2.03139	254.139
32	794.33	3455.93	124.43	3458.17	2.06203	255.554
33	630.96	3472.64	127.597	3474.98	2.1043	256.824
34	501.19	3489.25	131.251	3491.72	2.1542	258.109
35	398.11	3508.65	135.975	3511.28	2.21934	259.419
36	316.23	3524.69	141.51	3527.53	2.29909	260.744
37	251.19	3544.56	148.068	3547.65	2.39205	262.034
38	199.53	3561.78	155.775	3565.18	2.50424	263.334
39	158.49	3585.12	164.586	3588.89	2.62849	264.679
40	125.89	3604.16	174.713	3608.39	2.77526	266.024
41	100	3628.2	186.494	3632.99	2.94248	267.374
42	79.433	3652.45	199.222	3657.88	3.1221	268.755
43	63.096	3678.28	213.605	3684.48	3.32354	270.2
44	50.119	3708.01	229.936	3715.13	3.5484	271.62
45	39.811	3740.39	246.961	3748.54	3.7775	280.725
46	31.623	3774.9	265.494	3784.23	4.02306	282.33
47	25.119	3812.06	285.033	3822.7	4.27613	283.985
48	19.953	3851.02	307.891	3863.3	4.57111	285.905
49	15.849	3894.54	331.284	3908.61	4.86208	287.865
50	12.589	3937.36	355.807	3953.4	5.16361	289.87
51	10	3986.37	382.438	4004.67	5.47998	292.135
52	7.9433	4036.87	410.445	4057.69	5.80554	294.445
53	6.3096	4092.01	442.87	4115.9	6.17697	296.72
54	5.0119	4148.63	478.534	4176.14	6.57984	299.115
55	3.9811	4208.03	519.443	4239.97	7.03705	301.6
56	3.1623	4269.85	564.081	4306.95	7.52565	304.075
57	2.5119	4337.12	618.625	4381.02	8.11763	306.645
58	1.9953	4407.99	680.326	4460.18	8.77376	309.215
59	1.5849	4482.03	753.318	4544.9	9.54082	311.98
60	1.2589	4561.41	837.37	4637.63	10.4024	314.795
61	1	4647.02	941.844	4741.51	11.4573	317.965
62	0.79433	4740.39	1058.84	4857.21	12.5912	321.22
63	0.63096	4843.53	1200.81	4990.16	13.9241	324.751
64	0.50119	4944.18	1368.96	5130.2	15.4765	328.556
65	0.39811	5067.3	1576.78	5306.96	17.2844	332.756
66	0.31623	5193.19	1846.59	5511.73	19.5743	337.461
67	0.25119	5371.77	2125.46	5776.98	21.5873	342.851
68	0.19953	5559.87	2478.25	6087.19	24.0244	348.991
69	0.15849	5754.73	2892.54	6440.78	26.6858	356.256
70	0.12589	5976.37	3449.76	6900.57	29.995	364.816
71	0.1	6325.03	4016.84	7492.72	32.4184	374.896

File: Z_p44_3.txt
Index	Frequency (Hz)	Z' (Ω)	-Z'' (Ω)	Z (Ω)	-Phase (°)	Time (s)
1	1000000	2047.51	1059.89	2305.58	27.3683	412.602
2	794330	2165.77	958.709	2368.48	23.8772	414.822
3	630960	2316.88	880.132	2478.42	20.8007	416.942
4	501190	2458.11	803.951	2586.24	18.1109	419.257
5	398110	2591.79	717.668	2689.32	15.4774	421.362
6	316230	2709.53	651.288	2786.71	13.5157	423.672
7	251190	2757.24	547.87	2811.15	11.2384	425.817
8	199530	2851.32	496.67	2894.26	9.88116	427.932
9	158490	2925.42	444.364	2958.97	8.63708	430.067
10	125890	2987.44	396.6	3013.65	7.56213	432.152
11	100000	3037.98	352.296	3058.33	6.6147	434.232
12	79433	3079.98	312.748	3095.82	5.79806	436.312
13	63096	3115.48	278.077	3127.86	5.10052	438.467
14	50119	3144.87	247.524	3154.6	4.50031	440.627
15	39811	3170.66	221.325	3178.37	3.99301	442.798
16	31623	3193.53	199.009	3199.73	3.56585	444.798
17	25119	3213.4	180.703	3218.47	3.21859	447.043
18	19953	3233.33	165.735	3237.57	2.93432	449.038
19	15849	3251.56	153.336	3255.17	2.69993	451.093
20	12589	3267.47	143.576	3270.62	2.51602	453.208
21	10000	3280.92	135.914	3283.74	2.37216	455.313
22	7943.3	3298.58	130.146	3301.15	2.25944	457.333
23	6309.6	3314.07	125.855	3316.46	2.17482	459.398
24	5011.9	3328.33	122.631	3330.59	2.11008	461.558
25	3981.1	3343.98	120.522	3346.15	2.06414	463.613
26	3162.3	3360.3	119.207	3362.41	2.03173	465.728
27	2511.9	3376.9	118.563	3378.98	2.01083	467.798
28	1995.3	3391.46	118.744	3393.54	2.00526	469.868
29	1584.9	3407.7	119.357	3409.79	2.00601	471.943
30	1258.9	3424.55	120.961	3426.69	2.02294	474.053
31	1000	3440.85	122.33	3443.03	2.03614	476.188
32	794.33	3457.55	124.737	3459.8	2.06614	478.248
33	630.96	3473.44	127.934	3475.8	2.10936	480.358
34	501.19	3491.73	131.769	3494.21	2.16118	482.508
35	398.11	3510.1	136.539	3512.75	2.22762	484.623
36	316.23	3529.07	142.229	3531.93	2.30789	486.913
37	251.19	3545.6	148.675	3548.71	2.40113	489.003
38	199.53	3565.74	156.644	3569.18	2.51539	490.998
39	158.49	3586.77	165.715	3590.6	2.64527	493.058
40	125.89	3606.25	175.979	3610.54	2.79372	495.229
41	100	3628.93	187.897	3633.79	2.96399	497.534
42	79.433	3655.58	200.774	3661.09	3.14367	499.754
43	63.096	3682.8	216.076	3689.13	3.35779	501.939
44	50.119	3711.79	232.174	3719.04	3.57921	504.029
45	39.811	3743.46	249.263	3751.75	3.80949	513.959
46	31.623	3778.9	268.701	3788.44	4.0672	516.354
47	25.119	3816.22	289.117	3827.16	4.33246	518.784
48	19.953	3855.15	311.888	3867.75	4.62525	521.379
49	15.849	3897.11	335.778	3911.55	4.92449	524.054
50	12.589	3945.68	361.233	3962.18	5.23094	526.954
51	10	3991.95	387.494	4010.71	5.54427	529.954
52	7.9433	4046.64	417.803	4068.15	5.89472	533.039
53	6.3096	4099.82	449.707	4124.41	6.25971	536.199
54	5.0119	4157.02	486.297	4185.36	6.67226	539.304
55	3.9811	4219.74	527.549	4252.59	7.1261	542.414
56	3.1623	4282.78	573.571	4321.01	7.62795	545.634
57	2.5119	4348.47	627.158	4393.46	8.20689	548.92
58	1.9953	4420.46	690.24	4474.03	8.87487	552.3
59	1.5849	4497.34	761.938	4561.42	9.61573	555.8
60	1.2589	4578.76	848.657	4656.74	10.5004	559.5
61	1	4663.62	952.309	4759.86	11.5411	563.66
62	0.79433	4760.87	1073.56	4880.41	12.7075	567.595
63	0.63096	4865.92	1219.41	5016.39	14.0687	571.85
64	0.50119	4970.9	1383.58	5159.86	15.5538	576.39
65	0.39811	5088	1595.79	5332.38	17.4134	581.43
66	0.31623	5247.4	1861.59	5567.83	19.5329	587.025
67	0.25119	5409.83	2150.28	5821.52	21.6767	593.19
68	0.19953	5565.44	2537.76	6116.73	24.5123	600.185
69	0.15849	5772.25	2929.81	6473.22	26.9109	608.351
70	0.12589	6006.24	3451.98	6927.56	29.8874	617.626
71	0.1	6317.69	4102.52	7532.85	32.9985	628.741

File: Z_p45_1.txt
Index	Frequency (Hz)	Z' (Ω)	-Z'' (Ω)	Z (Ω)	-Phase (°)	Time (s)
1	1000000	1028.02	400.985	1103.45	21.3086	32.8344
2	794330	1067.32	368.037	1128.99	19.0254	34.2944
3	630960	1119.31	336.864	1168.9	16.7496	35.7044
4	501190	1169.71	306.314	1209.15	14.6746	37.1945
5	398110	1204.83	267.662	1234.2	12.5253	38.5845
6	316230	1248.02	238.672	1270.64	10.8265	40.0045
7	251190	1281.26	210.506	1298.43	9.33015	41.3145
8	199530	1309.11	184.755	1322.08	8.03312	42.7746
9	158490	1330.47	161.234	1340.21	6.90973	44.1346
10	125890	1347.49	140.672	1354.82	5.95982	45.5796
11	100000	1362.77	123.236	1368.33	5.16723	49.5297
12	79433	1374.73	108.117	1378.98	4.49683	50.7297
13	63096	1385.07	95.4193	1388.36	3.94095	52.1247
14	50119	1393.87	84.7056	1396.45	3.47758	53.4898
15	39811	1401.6	75.841	1403.65	3.09727	54.8098
16	31623	1408.31	68.6692	1409.98	2.79154	56.1498
17	25119	1414.63	63.1403	1416.04	2.55564	57.4748
18	19953	1421.5	59.033	1422.72	2.37806	58.7499
19	15849	1427.02	55.9931	1428.12	2.24701	60.2599
20	12589	1432.66	54.0052	1433.68	2.15878	61.5749
21	10000	1438.6	52.6004	1439.56	2.09401	62.9749
22	7943.3	1445.16	52.4424	1446.11	2.07825	64.325
23	6309.6	1450.56	52.7701	1451.52	2.08345	65.605
24	5011.9	1457.76	53.8103	1458.75	2.114	66.935
25	3981.1	1463.6	55.3367	1464.65	2.16524	68.245
26	3162.3	1470.33	57.5088	1471.45	2.23986	69.5651
27	2511.9	1477.69	60.2251	1478.92	2.33386	70.8551
28	1995.3	1485.48	63.4517	1486.83	2.44589	72.1501
29	1584.9	1493.04	67.4106	1494.56	2.58515	73.4251
30	1258.9	1501.97	72.1555	1503.7	2.7504	74.8152
31	1000	1511.24	77.3815	1513.22	2.93121	76.1002
32	794.33	1520.91	83.4038	1523.19	3.13886	77.5152
33	630.96	1531.89	90.4729	1534.55	3.37995	78.7802
34	501.19	1543.27	98.4667	1546.41	3.65074	80.0953
35	398.11	1555.55	107.59	1559.26	3.95659	81.4803
36	316.23	1569.69	117.843	1574.11	4.29338	82.7653
37	251.19	1583.98	129.372	1589.25	4.6693	84.0753
38	199.53	1601.05	142.074	1607.34	5.07102	85.3853
39	158.49	1619.57	156.452	1627.11	5.51771	86.7254
40	125.89	1639.26	172.003	1648.26	5.98998	88.1004
41	100	1661.48	189.346	1672.23	6.50153	89.3854
42	79.433	1686.87	208.475	1699.71	7.04527	90.7654
43	63.096	1713.61	229.283	1728.88	7.62099	92.2155
44	50.119	1743.82	252.106	1761.95	8.22632	102.001
45	39.811	1777	277.733	1798.57	8.88309	111.056
46	31.623	1813.28	305.53	1838.84	9.56426	112.681
47	25.119	1852.39	336.433	1882.69	10.2939	114.251
48	19.953	1895.5	371.471	1931.55	11.088	116.201
49	15.849	1943.21	410.295	1986.05	11.9225	118.101
50	12.589	1994.32	452.528	2045.02	12.7844	120.061
51	10	2050.54	500.479	2110.73	13.7161	122.336
52	7.9433	2112.33	554.316	2183.85	14.704	124.761
53	6.3096	2179.74	614.867	2264.8	15.7529	127.046
54	5.0119	2252.16	682.146	2353.2	16.8508	129.396
55	3.9811	2334.33	761.027	2455.25	18.0567	131.866
56	3.1623	2421.49	847.999	2565.68	19.3001	134.436
57	2.5119	2519.45	948.469	2692.07	20.6293	137.031
58	1.9953	2626.49	1064.43	2833.98	22.0611	139.591
59	1.5849	2743.07	1196.65	2992.73	23.569	142.376
60	1.2589	2869.39	1348.87	3170.62	25.1778	145.231
61	1	3000.5	1525.27	3365.92	26.9459	148.497
62	0.79433	3157.29	1730.76	3600.56	28.7306	151.677
63	0.63096	3319.67	1978.6	3864.59	30.7959	155.282
64	0.50119	3499.51	2268.81	4170.62	32.9562	159.197
65	0.39811	3686.66	2620.49	4523.1	35.4053	163.447
66	0.31623	3920.04	3044.42	4963.39	37.834	168.337
67	0.25119	4145.49	3530.23	5444.96	40.4172	173.867
68	0.19953	4430.41	4120.73	6050.53	42.9259	180.127
69	0.15849	4741.08	4847.53	6780.59	45.6361	187.462
70	0.12589	5131.52	5761.87	7715.68	48.3118	196.057
71	0.1	5580.28	6730.35	8742.83	50.3372	206.398

File: Z_p45_2.txt
Index	Frequency (Hz)	Z' (Ω)	-Z'' (Ω)	Z (Ω)	-Phase (°)	Time (s)
1	1000000	1025.21	403.64	1101.81	21.4903	352.347
2	794330	1067.56	368.86	1129.49	19.0609	353.702
3	630960	1120.56	338.192	1170.48	16.7942	355.097
4	501190	1171.04	307.258	1210.68	14.7019	356.632
5	398110	1206.38	268.274	1235.85	12.5374	358.072
6	316230	1248.78	238.927	1271.43	10.8314	359.532
7	251190	1282.6	210.881	1299.82	9.33684	360.822
8	199530	1309.78	184.883	1322.76	8.03454	362.242
9	158490	1331.62	161.457	1341.37	6.91331	363.632
10	125890	1349.55	141.317	1356.93	5.97789	364.972
11	100000	1363.92	123.615	1369.51	5.17868	368.157
12	79433	1376.29	108.355	1380.54	4.50162	369.412
13	63096	1386.22	95.5662	1389.51	3.94374	370.852
14	50119	1395.09	84.8941	1397.67	3.48227	372.262
15	39811	1403.34	76.0391	1405.4	3.1015	373.608
16	31623	1409.81	68.7179	1411.49	2.79054	374.948
17	25119	1417.1	63.2754	1418.52	2.55663	376.278
18	19953	1422.73	59.1874	1423.96	2.38221	377.623
19	15849	1428.43	56.0833	1429.53	2.24841	378.978
20	12589	1433.73	53.9595	1434.75	2.15535	380.318
21	10000	1440.73	52.7845	1441.69	2.09823	381.663
22	7943.3	1446.57	52.4652	1447.53	2.07713	382.978
23	6309.6	1452.08	52.7838	1453.04	2.08182	384.303
24	5011.9	1458.59	53.7356	1459.58	2.10986	385.723
25	3981.1	1465.69	55.4255	1466.74	2.16562	387.073
26	3162.3	1471.47	57.4736	1472.59	2.23675	388.353
27	2511.9	1479.04	60.172	1480.27	2.32968	389.668
28	1995.3	1487.3	63.5641	1488.66	2.44721	390.963
29	1584.9	1494.83	67.4027	1496.35	2.58174	392.293
30	1258.9	1503.95	71.9662	1505.67	2.73959	393.583
31	1000	1512.17	77.3512	1514.15	2.92826	394.948
32	794.33	1522.45	83.3987	1524.73	3.13549	396.373
33	630.96	1532.68	90.4569	1535.35	3.37761	397.693
34	501.19	1544.75	98.3908	1547.88	3.64445	399.098
35	398.11	1557.64	107.374	1561.34	3.94339	400.403
36	316.23	1571.43	117.728	1575.83	4.2845	401.678
37	251.19	1586.94	129.239	1592.2	4.65582	402.978
38	199.53	1602.77	142.048	1609.05	5.0647	404.223
39	158.49	1620.92	156.152	1628.43	5.50263	405.613
40	125.89	1641.97	171.827	1650.93	5.97408	407.038
41	100	1663.65	188.937	1674.34	6.47922	408.403
42	79.433	1688.64	208.036	1701.41	7.0233	409.818
43	63.096	1715.73	228.674	1730.9	7.5917	411.263
44	50.119	1746.03	251.812	1764.09	8.2066	421.113
45	39.811	1779.38	276.992	1800.81	8.84807	430.234
46	31.623	1814.59	304.347	1839.93	9.52117	431.924
47	25.119	1854.48	335.184	1884.53	10.2452	433.579
48	19.953	1897.99	369.86	1933.69	11.027	435.494
49	15.849	1943.8	408.211	1986.2	11.8602	437.489
50	12.589	1996.07	450.77	2046.33	12.7256	439.609
51	10	2051.89	497.762	2111.4	13.6358	441.984
52	7.9433	2112.93	551.458	2183.71	14.6274	444.429
53	6.3096	2179.7	611.139	2263.76	15.6623	446.954
54	5.0119	2252.11	678.885	2352.21	16.7751	449.579
55	3.9811	2333.72	756.042	2453.13	17.9505	452.184
56	3.1623	2421.83	844.301	2564.78	19.2196	454.779
57	2.5119	2518.43	943.315	2689.3	20.5341	457.399
58	1.9953	2622.77	1057.33	2827.88	21.956	460.189
59	1.5849	2740.6	1190.1	2987.85	23.4729	462.939
60	1.2589	2861.07	1339.89	3159.27	25.0945	467.579
61	1	2999.5	1518.17	3361.82	26.8458	470.819
62	0.79433	3147.48	1724.77	3589.07	28.722	474.039
63	0.63096	3316.36	1965.12	3854.86	30.649	477.624
64	0.50119	3492.46	2253.17	4156.21	32.8282	481.645
65	0.39811	3688.02	2608.74	4517.41	35.2739	485.995
66	0.31623	3910.15	3025.02	4943.69	37.7268	490.96
67	0.25119	4133.42	3529.79	5435.5	40.4961	496.555
68	0.19953	4415.25	4117.04	6036.92	42.9983	502.87
69	0.15849	4726.55	4847.35	6770.31	45.7229	510.235
70	0.12589	5118.61	5748.37	7697.01	48.3167	518.89
71	0.1	5560.55	6720.88	8722.95	50.3972	529.185

File: Z_p45_3.txt
Index	Frequency (Hz)	Z' (Ω)	-Z'' (Ω)	Z (Ω)	-Phase (°)	Time (s)
1	1000000	1028.97	401.376	1104.48	21.3095	605.368
2	794330	1069.13	370.059	1131.36	19.0923	607.659
3	630960	1121.01	339.014	1171.15	16.8263	610.09
4	501190	1171.62	307.968	1211.42	14.7274	612.506
5	398110	1207.25	268.63	1236.77	12.5448	614.947
6	316230	1250.65	239.588	1273.4	10.8448	617.263
7	251190	1284.56	211.365	1301.83	9.34392	619.584
8	199530	1311.64	185.544	1324.7	8.0516	621.905
9	158490	1334.24	162.294	1344.07	6.93528	624.221
10	125890	1351.06	141.605	1358.46	5.98337	626.537
11	100000	1366.6	123.798	1372.2	5.17619	634.186
12	79433	1378.19	108.714	1382.47	4.51025	636.532
13	63096	1388.78	95.8464	1392.08	3.948	638.853
14	50119	1397.12	85.053	1399.7	3.48373	641.134
15	39811	1405.12	76.1594	1407.18	3.10247	643.4
16	31623	1412.52	68.8193	1414.19	2.78931	645.941
17	25119	1418.65	63.4339	1420.07	2.56023	648.282
18	19953	1425.1	59.2984	1426.33	2.38271	650.683
19	15849	1430.38	56.2528	1431.49	2.25211	652.939
20	12589	1436.15	54.0018	1437.16	2.15342	655.231
21	10000	1442.36	52.7865	1443.32	2.09594	657.477
22	7943.3	1449.29	52.5619	1450.25	2.07705	659.658
23	6309.6	1454.86	52.8764	1455.82	2.08148	661.934
24	5011.9	1461.42	53.9097	1462.42	2.1126	664.09
25	3981.1	1467.18	55.356	1468.23	2.16071	666.166
26	3162.3	1473.97	57.5888	1475.1	2.23744	668.272
27	2511.9	1482.09	60.2888	1483.32	2.3294	670.388
28	1995.3	1489.37	63.5766	1490.72	2.4443	672.594
29	1584.9	1497.55	67.5196	1499.08	2.58152	674.76
30	1258.9	1505.99	72.137	1507.72	2.74237	676.826
31	1000	1514.72	77.3775	1516.7	2.92434	678.922
32	794.33	1524.93	83.4312	1527.21	3.13161	681.153
33	630.96	1535.92	90.4603	1538.59	3.37062	683.334
34	501.19	1547.45	98.3786	1550.58	3.63766	685.535
35	398.11	1559.52	107.419	1563.21	3.94031	687.551
36	316.23	1573.92	117.771	1578.32	4.27925	689.682
37	251.19	1588.83	129.074	1594.06	4.64442	691.908
38	199.53	1605.82	142.002	1612.09	5.05349	694.189
39	158.49	1624.29	156.098	1631.77	5.48942	696.23
40	125.89	1643.81	171.722	1652.75	5.96382	698.481
41	100	1666.47	188.973	1677.15	6.46957	700.697
42	79.433	1691.22	207.966	1703.96	7.01035	702.933
43	63.096	1718.29	228.727	1733.45	7.58223	705.259
44	50.119	1748.83	251.496	1766.82	8.18347	716.947
45	39.811	1780.57	276.795	1801.96	8.83607	727.013
46	31.623	1817.24	305.046	1842.67	9.52895	729.364
47	25.119	1856.62	335.509	1886.69	10.2434	731.84
48	19.953	1899.6	370.336	1935.37	11.0317	734.601
49	15.849	1946.9	408.214	1989.23	11.8419	737.587
50	12.589	1997.06	450.69	2047.28	12.7173	740.578
51	10	2053.36	498.27	2112.95	13.6398	743.704
52	7.9433	2116.54	552.17	2187.38	14.6216	747.15
53	6.3096	2182.72	611.865	2266.86	15.6593	750.331
54	5.0119	2255.04	679.369	2355.16	16.7658	753.712
55	3.9811	2336.9	756.959	2456.44	17.948	757.108
56	3.1623	2425.53	844.337	2568.29	19.1932	760.474
57	2.5119	2522.4	945.382	2693.74	20.5457	764.031
58	1.9953	2627.06	1060.9	2833.18	21.9906	767.532
59	1.5849	2738.67	1190.22	2986.13	23.4896	773.454
60	1.2589	2865.49	1343.08	3164.63	25.1128	777.245
61	1	3002.6	1522.61	3366.59	26.8894	781.436
62	0.79433	3154.21	1726.08	3595.61	28.6889	785.552
63	0.63096	3317.14	1971.57	3858.82	30.7255	789.993
64	0.50119	3491.29	2257.14	4157.38	32.8829	794.949
65	0.39811	3690.58	2602.35	4515.82	35.1889	800.245
66	0.31623	3901.59	3036.87	4944.19	37.896	806.111
67	0.25119	4144.08	3542.77	5452.03	40.5271	812.502
68	0.19953	4457.68	4131.69	6077.98	42.8265	819.724
69	0.15849	4758.98	4879.38	6815.88	45.7157	828.02
70	0.12589	5126.84	5756.84	7708.8	48.3129	837.591
71	0.1	5595.39	6776.25	8787.83	50.4523	848.677

File: Z_p46_1.txt
Index	Frequency (Hz)	Z' (Ω)	-Z'' (Ω)	Z (Ω)	-Phase (°)	Time (s)
1	1000000	1868.77	825.114	2042.82	23.8228	23.5112
2	794330	1944.9	735.319	2079.26	20.7104	24.9612
3	630960	2052.6	660.883	2156.37	17.8472	26.3963
4	501190	2154.49	594.514	2235.01	15.4264	27.8363
5	398110	2243.17	515.456	2301.63	12.9413	29.2563
6	316230	2324.29	457.4	2368.87	11.133	30.6363
7	251190	2347.08	373.225	2376.57	9.03532	31.9464
8	199530	2411.25	332.416	2434.06	7.84935	33.3664
9	158490	2460.44	292.754	2477.8	6.7854	34.7614
10	125890	2499.04	256.392	2512.16	5.85783	36.0314
11	100000	2528.08	223.953	2537.98	5.0624	37.4515
12	79433	2553.38	195.837	2560.88	4.38584	38.7315
13	63096	2573.38	171.58	2579.1	3.81455	40.2065
14	50119	2589.61	151.015	2594.01	3.33747	41.6215
15	39811	2605.79	133.843	2609.23	2.94033	43.0066
16	31623	2616.27	119.241	2618.99	2.60956	44.2516
17	25119	2626.9	108.131	2629.13	2.35713	45.5366
18	19953	2637.93	99.2207	2639.8	2.15406	47.1216
19	15849	2648.51	92.1961	2650.12	1.99369	48.5167
20	12589	2657.84	86.9146	2659.26	1.87297	49.7867
21	10000	2666.22	82.7986	2667.51	1.77873	51.0867
22	7943.3	2675.88	80.0791	2677.08	1.71414	52.3917
23	6309.6	2685.8	78.2838	2686.94	1.66954	53.6768
24	5011.9	2695.42	77.2186	2696.52	1.64097	54.9368
25	3981.1	2705.37	76.8929	2706.46	1.62804	56.1968
26	3162.3	2714.91	77.0806	2716.01	1.62628	57.4918
27	2511.9	2723.74	77.7194	2724.85	1.63444	58.7819
28	1995.3	2734.33	78.9143	2735.46	1.65313	60.1019
29	1584.9	2746.25	80.6968	2747.44	1.68311	61.4569
30	1258.9	2755.57	82.7132	2756.81	1.71932	62.7219
31	1000	2765.7	85.4314	2767.02	1.76928	63.972
32	794.33	2777.38	88.6179	2778.79	1.82752	65.352
33	630.96	2790.06	92.6168	2791.59	1.90125	66.687
34	501.19	2801.9	97.4275	2803.59	1.99148	68.037
35	398.11	2815.19	103.041	2817.07	2.09618	69.4371
36	316.23	2829.33	109.666	2831.45	2.21971	70.6421
37	251.19	2841.29	117.147	2843.7	2.36098	71.9571
38	199.53	2856.83	126.135	2859.61	2.5281	73.3371
39	158.49	2872.81	136.095	2876.03	2.71228	74.8022
40	125.89	2889.94	147.386	2893.7	2.91953	76.2922
41	100	2909.15	160.033	2913.55	3.14868	77.7072
42	79.433	2929.24	174.11	2934.41	3.40158	79.3072
43	63.096	2952.82	190.031	2958.93	3.68222	80.8223
44	50.119	2977.12	207.111	2984.31	3.97952	82.2673
45	39.811	3004.95	225.942	3013.43	4.29998	91.4125
46	31.623	3036.3	246.46	3046.28	4.64059	93.1875
47	25.119	3068.44	268.181	3080.13	4.99494	94.9025
48	19.953	3103.31	293.422	3117.15	5.40132	96.8076
49	15.849	3141.41	319.824	3157.65	5.8132	98.7776
50	12.589	3182.42	349.011	3201.5	6.25853	100.843
51	10	3226.6	382.094	3249.14	6.75352	103.108
52	7.9433	3273.06	418.528	3299.71	7.2869	105.573
53	6.3096	3322.21	460.708	3354.01	7.89514	107.883
54	5.0119	3373.99	508.724	3412.12	8.57437	110.228
55	3.9811	3429.06	564.81	3475.26	9.35338	112.718
56	3.1623	3487.25	631.456	3543.96	10.2637	115.183
57	2.5119	3551.57	710.19	3621.88	11.308	117.808
58	1.9953	3617.78	804.862	3706.23	12.5426	120.548
59	1.5849	3691.1	916.762	3803.25	13.9484	123.238
60	1.2589	3769.22	1049.24	3912.53	15.5556	126.018
61	1	3857.9	1213.98	4044.39	17.4674	129.378
62	0.79433	3962.3	1404.5	4203.86	19.5176	132.538
63	0.63096	4064.55	1641.13	4383.37	21.9872	136.153
64	0.50119	4188.72	1928.52	4611.35	24.7217	139.963
65	0.39811	4314.09	2280.85	4879.92	27.8652	144.278
66	0.31623	4491.58	2701.22	5241.26	31.0225	149.074
67	0.25119	4648.86	3206.4	5647.38	34.5947	154.459
68	0.19953	4861.41	3809.06	6175.93	38.0797	160.624
69	0.15849	5106.69	4548.43	6838.6	41.6908	168.149
70	0.12589	5410.41	5460.42	7686.92	45.2636	177.249
71	0.1	5791.45	6549.28	8742.65	48.5141	188.499

File: Z_p46_2.txt
Index	Frequency (Hz)	Z' (Ω)	-Z'' (Ω)	Z (Ω)	-Phase (°)	Time (s)
1	1000000	1866.48	822.037	2039.48	23.7697	236.431
2	794330	1945.8	734.889	2079.95	20.6905	238.756
3	630960	2054.44	658.927	2157.53	17.7827	241.071
4	501190	2153.41	597.414	2234.75	15.5054	242.826
5	398110	2242.52	515.53	2301.01	12.9467	244.891
6	316230	2323.99	458.032	2368.69	11.1495	247.121
7	251190	2347.82	373.151	2377.29	9.03077	249.071
8	199530	2411.76	332.554	2434.58	7.85093	251.961
9	158490	2461.03	292.417	2478.34	6.77606	254.631
10	125890	2499.2	256.572	2512.34	5.86154	257.541
11	100000	2528.75	223.658	2538.62	5.05445	259.716
12	79433	2554.11	195.76	2561.6	4.38288	261.351
13	63096	2574.66	171.678	2580.38	3.81483	264.021
14	50119	2590.47	151.073	2594.88	3.33763	266.522
15	39811	2605.46	133.778	2608.89	2.93928	268.652
16	31623	2617.6	119.253	2620.31	2.60849	270.242
17	25119	2629.06	108.28	2631.29	2.35845	271.632
18	19953	2639.76	99.2508	2641.63	2.15321	273.057
19	15849	2648.68	92.219	2650.28	1.99406	274.482
20	12589	2658.64	86.8868	2660.06	1.87181	276.147
21	10000	2667.55	82.8652	2668.84	1.77927	277.497
22	7943.3	2677	80.1729	2678.2	1.71543	278.822
23	6309.6	2685.7	78.2783	2686.84	1.66949	280.437
24	5011.9	2696.24	77.263	2697.34	1.64141	281.927
25	3981.1	2705.15	76.854	2706.24	1.62735	283.427
26	3162.3	2715.93	77.1871	2717.03	1.62792	284.932
27	2511.9	2725.51	77.7477	2726.62	1.63397	286.342
28	1995.3	2736.64	79.0813	2737.78	1.65523	287.717
29	1584.9	2746.97	80.6411	2748.15	1.68151	288.917
30	1258.9	2757.54	82.8566	2758.79	1.72106	290.177
31	1000	2767.67	85.5894	2768.99	1.77129	291.807
32	794.33	2780.09	88.8232	2781.51	1.82996	293.302
33	630.96	2790.88	92.7778	2792.42	1.90399	294.697
34	501.19	2802.51	97.3939	2804.2	1.99036	296.062
35	398.11	2816.05	103.118	2817.94	2.09711	297.512
36	316.23	2829.83	109.702	2831.96	2.22003	298.767
37	251.19	2844.04	117.339	2846.46	2.36256	300.232
38	199.53	2857.91	126.136	2860.69	2.52715	301.547
39	158.49	2874.53	136.268	2877.76	2.71409	302.922
40	125.89	2890.65	147.331	2894.41	2.91772	304.292
41	100	2909.72	160.188	2914.13	3.1511	305.617
42	79.433	2930.42	174.28	2935.6	3.40353	306.997
43	63.096	2954.74	190.424	2960.87	3.68745	308.492
44	50.119	2979.59	207.172	2986.79	3.97739	309.982
45	39.811	3006.77	226.119	3015.26	4.30074	319.963
46	31.623	3036.65	246.325	3046.63	4.63752	321.503
47	25.119	3071.22	268.913	3082.97	5.004	323.108
48	19.953	3106.38	294.118	3120.27	5.40876	325.038
49	15.849	3144.89	320.481	3161.18	5.81865	326.983
50	12.589	3185.94	349.91	3205.09	6.26765	328.968
51	10	3229.76	382.885	3252.38	6.7608	331.243
52	7.9433	3276.26	419.085	3302.95	7.28945	333.733
53	6.3096	3325.51	461.318	3357.35	7.89773	336.033
54	5.0119	3376.88	509.427	3415.09	8.57879	338.378
55	3.9811	3433.45	565.462	3479.71	9.3522	340.848
56	3.1623	3490.46	632.06	3547.23	10.264	343.543
57	2.5119	3553.11	711.018	3623.56	11.3161	346.193
58	1.9953	3620.57	804.913	3708.96	12.534	348.813
59	1.5849	3696.07	916.051	3807.9	13.9199	351.638
60	1.2589	3772.81	1053.34	3917.09	15.5993	354.448
61	1	3862.54	1214.58	4049	17.4558	357.798
62	0.79433	3965.22	1406.03	4207.12	19.524	361.163
63	0.63096	4071.3	1644.99	4391.07	22.0009	364.668
64	0.50119	4189.94	1917.8	4607.99	24.5943	369.283
65	0.39811	4321.55	2283.8	4887.89	27.855	373.834
66	0.31623	4491.77	2704.32	5243.03	31.0505	378.724
67	0.25119	4654.22	3206.01	5651.57	34.5606	384.124
68	0.19953	4871.13	3802.49	6179.54	37.9762	390.359
69	0.15849	5114.39	4553.06	6847.43	41.6769	397.684
70	0.12589	5432.62	5470.84	7709.96	45.2008	406.464
71	0.1	5804.23	6465.91	8688.9	48.0867	416.704