Folder: Streamlit_cement_impedance/data/20200619

Note: README.md
# Software KDssZ version 1.0

This software tool works to analyze impedance measurements through a lumped circuital model.

## The repository contains:

- The Python module called [KDssZ.py](https://github.com/dantrica/Streamlit_cement_impedance/blob/c79735cefb679f8cb21de758db89e5011d7d15d4/KDssZ.py) contains the algorithms to optimize the electrical impedance measurements.
- The Python module called [appZ.py](https://github.com/dantrica/Streamlit_cement_impedance/blob/b421c1652a15b18d4e0220819822e362abc5bec6/appZ.py) contains the code to deploy the application on the Streamlit platform.
- All [data](https://github.com/dantrica/Streamlit_cement_impedance/tree/c79735cefb679f8cb21de758db89e5011d7d15d4/data) acquired during the experimental campaign is located in this repository Streamlit_cement_impedance/data/.
- The [Figures](https://github.com/dantrica/Streamlit_cement_impedance/tree/c79735cefb679f8cb21de758db89e5011d7d15d4/figures) folder contains an image describing the lumped circuit model.

## The left sidebar functionalities:

The user can upload the impedance measurements in format .txt. Moreover, this object contains the elements that will be presented in the left sidebar, such as i) the uploading file option, ii) the lumped circuit model, iii) Add and Remove buttons to move data in the Optimization zone, iv) Run and Reset buttons to start and clear the optimization.

## Project Description: 

$\texttt{KDssZ}$ has been developed to optimize experimental electrical impedance data to a lumped circuit model. This approach allows users to correlate the interactions among the components in the composite-electrodes, cement, nanoparticles, and pores with the measured impedance, which is analyzed across three frequency ranges: high, medium, and low. Although the software has been validated with impedance measurements from gold nanoparticles/cement-based composites, it can also be used to study the electrical properties of other cement-based composites. KDssZ is deployed on the Streamlit platform, and in line with the principles of open science, it allows researchers working on similar studies to use this tool to explore new research questions related to cement-based composites.

## Usage instructions:

The main functionalities of the software KDssZ are displayed in Figure~\ref{}, and enumerated according to the following list:

1. Push button \texttt{Browse Files} to upload \texttt{.txt} files with electrical impedance spectroscopy data.
2. Help menu explaining the format files to be received; help hints boxes to report whether a file was added previously or it is already in the optimization zone; and help tips on buttons.
3. Choosing the file data since Select tag.
4. Buttons $\texttt{Add data}$ and $\texttt{Remove}$, to add or remove data to the optimization zone.
5. Buttons $\texttt{Run}$ and $\texttt{Reset}$, to start the optimization, create the plots and return the DataFrame with the parameters.
6. Figures: wide mode and saving options.
7. T

File: Z_p18_1.txt
Index	Frequency (Hz)	Z' (Ω)	-Z'' (Ω)	Z (Ω)	-Phase (°)	Time (s)
1	1000000	3322.31	7252.61	7977.35	65.3882	140.077
2	794330	5023.83	7924.49	9382.77	57.6268	141.447
3	630960	6882.48	8671.53	11070.9	51.5614	142.817
4	501190	8710.69	9731.68	13060.7	48.1687	144.342
5	398110	11235.9	11443.5	16037.4	45.5245	149.518
6	316230	13397.4	12186.2	18110.6	42.2897	150.828
7	251190	15600.4	12313.2	19874.3	38.2836	156.103
8	199530	18077.2	12612.7	22042.4	34.9041	157.483
9	158490	20449.2	12634.2	24037.3	31.7091	158.778
10	125890	22719.1	12463.1	25913.1	28.7479	160.103
11	100000	24886.2	12049.5	27649.8	25.8354	161.483
12	79433	26957.8	11494.2	29305.9	23.0924	162.843
13	63096	28789.3	10758.9	30733.9	20.4913	164.283
14	50119	30467.9	9947.48	32050.7	18.0814	165.808
15	39811	31959.9	9096.09	33229.1	15.8869	167.383
16	31623	33147.1	8224.88	34152.3	13.9355	168.938
17	25119	34229.9	7506.48	35043.3	12.3689	170.488
18	19953	35160.4	6832.23	35818.1	10.9964	171.998
19	15849	35974.3	6225.73	36509	9.81838	173.473
20	12589	36781.6	5701.77	37220.9	8.81167	174.858
21	10000	37404.1	5193	37762.9	7.90414	177.373
22	7943.3	38078.8	4816.85	38382.2	7.20946	178.768
23	6309.6	38643	4488.88	38902.8	6.62594	180.398
24	5011.9	39170.3	4219.78	39397	6.1487	181.798
25	3981.1	39654.1	4002.06	39855.5	5.76303	183.228
26	3162.3	40126.6	3826.79	40308.6	5.4477	184.583
27	2511.9	40601.9	3692.52	40769.5	5.19643	185.958
28	1995.3	41075.3	3594.5	41232.3	5.0012	187.298
29	1584.9	41522.7	3521.45	41671.8	4.84752	188.588
30	1258.9	41987.8	3470.3	42131	4.72477	189.983
31	1000	42462.2	3442.01	42601.5	4.63429	191.498
32	794.33	42919.8	3429.31	43056.6	4.56825	193.083
33	630.96	43409.6	3427.7	43544.7	4.51481	194.553
34	501.19	43874.4	3432.54	44008.5	4.47346	196.073
35	398.11	44384	3448	44517.8	4.44214	197.433
36	316.23	44877.8	3458.87	45010.9	4.40725	198.768
37	251.19	45382.8	3477.85	45515.8	4.38222	200.144
38	199.53	45906.4	3499.84	46039.6	4.35972	201.384
39	158.49	46415.3	3514.99	46548.2	4.3307	202.889
40	125.89	46941	3523.64	47073.1	4.29287	204.369
41	100	47454	3532.56	47585.3	4.25734	205.734
42	79.433	47967.1	3527.51	48096.7	4.20597	207.059
43	63.096	48470.6	3522.06	48598.4	4.15603	208.479
44	50.119	48997	3534.96	49124.3	4.12655	209.984
45	39.811	49529.8	3508.14	49653.9	4.05144	219.099
46	31.623	50036.3	3498.41	50158.4	3.99947	220.779
47	25.119	50572.2	3489.2	50692.4	3.94684	222.449
48	19.953	51054.7	3493.85	51174.1	3.91484	224.454
49	15.849	51571.8	3478.83	51689	3.85911	226.474
50	12.589	52082	3476.78	52197.9	3.81917	228.524
51	10	52581.2	3469.77	52695.6	3.7754	230.859
52	7.9433	53030.6	3478.87	53144.6	3.75329	233.224
53	6.3096	53543.5	3496.82	53657.6	3.73657	235.814
54	5.0119	53964.9	3529.91	54080.3	3.74246	238.274
55	3.9811	54443.1	3581.88	54560.8	3.76414	240.859
56	3.1623	54899	3646.26	55020	3.79987	243.464
57	2.5119	55344.9	3790.3	55474.5	3.91779	245.954
58	1.9953	55760.2	3951.98	55900.1	4.05404	248.569
59	1.5849	56200.5	4134.04	56352.3	4.20703	251.389
60	1.2589	56676.1	4399.71	56846.6	4.43892	254.305
61	1	57107.5	4829.72	57311.3	4.83414	259.71
62	0.79433	57596.4	5283.75	57838.3	5.2415	262.87
63	0.63096	58075.1	5881.33	58372.1	5.78269	266.415
64	0.50119	58673.6	6569.35	59040.2	6.38847	270.26
65	0.39811	59297.3	7506.45	59770.5	7.21471	274.54
66	0.31623	59999.3	8576.95	60609.3	8.13536	279.66
67	0.25119	60757	9678.75	61523.1	9.05132	285.17
68	0.19953	61626.9	11084.3	62615.8	10.1963	291.385
69	0.15849	62542.5	12857.8	63850.5	11.6173	298.67
70	0.12589	63740.9	15115.6	65508.7	13.3407	307.336
71	0.1	64977.2	17158.7	67204.5	14.7926	317.541

File: Z_p18_2.txt
Index	Frequency (Hz)	Z' (Ω)	-Z'' (Ω)	Z (Ω)	-Phase (°)	Time (s)
1	1000000	3293.77	7383.64	8084.99	65.9588	466.73
2	794330	5008.79	7867.87	9326.92	57.5186	468.225
3	630960	6845.33	8772.05	11126.9	52.0331	469.645
4	501190	8782.24	9777.86	13142.8	48.0706	471.255
5	398110	11265.6	11478.3	16083.1	45.5359	476.45
6	316230	13598.4	12118.2	18214.5	41.7056	478.48
7	251190	15589.2	12351.4	19889.2	38.3899	484.031
8	199530	17994.9	12599.6	21967.4	34.9989	485.366
9	158490	20398.1	12671.5	24013.5	31.849	486.861
10	125890	22714.1	12478	25915.8	28.7821	488.421
11	100000	24907.1	12052.2	27669.8	25.8217	491.046
12	79433	26958.2	11473.3	29298.1	23.0544	493.061
13	63096	28797	10769.9	30745.1	20.5055	494.916
14	50119	30474.8	9972.81	32065.1	18.1206	496.776
15	39811	31961.6	9135.76	33241.6	15.9518	499.676
16	31623	33229.5	8230.71	34233.6	13.9118	502.861
17	25119	34202.2	7523.13	35019.8	12.4053	504.496
18	19953	35164.7	6847.38	35825.2	11.0189	505.896
19	15849	36048.8	6247.03	36586.1	9.83136	507.776
20	12589	36779.7	5729.93	37223.4	8.85496	509.866
21	10000	37424.4	5203.48	37784.4	7.91563	512.821
22	7943.3	38034.6	4810.41	38337.6	7.20819	514.576
23	6309.6	38590.2	4483.55	38849.8	6.62713	516.426
24	5011.9	39113	4216	39339.5	6.15218	517.881
25	3981.1	39619.7	3995.6	39820.7	5.75875	519.346
26	3162.3	40103.1	3821.4	40284.7	5.44324	520.761
27	2511.9	40553.2	3671.71	40719	5.17349	522.591
28	1995.3	41042.4	3589.69	41199.1	4.99854	524.616
29	1584.9	41468.3	3516.01	41617.1	4.84639	525.946
30	1258.9	41933.5	3467.19	42076.6	4.72664	527.571
31	1000	42411.2	3438.52	42550.4	4.63515	529.656
32	794.33	42879.9	3423.39	43016.3	4.56463	531.386
33	630.96	43369.6	3419.95	43504.2	4.50878	532.676
34	501.19	43831.7	3426.05	43965.3	4.46937	534.247
35	398.11	44340.4	3444.55	44474	4.44205	536.072
36	316.23	44839.1	3460.91	44972.5	4.41363	537.632
37	251.19	45329.6	3477.76	45462.8	4.38723	539.112
38	199.53	45848.1	3495.49	45981.2	4.35983	540.537
39	158.49	46366.1	3508.4	46498.6	4.32717	542.212
40	125.89	46896.2	3520.17	47028.1	4.29275	543.977
41	100	47400.2	3526.15	47531.2	4.25446	546.032
42	79.433	47919.3	3527.92	48049	4.21064	547.447
43	63.096	48447.9	3530.68	48576.4	4.16811	549.047
44	50.119	48958.4	3579.77	49089.1	4.18195	551.162
45	39.811	49515.5	3507.81	49639.6	4.05222	560.252
46	31.623	50001.4	3492.29	50123.2	3.99526	561.982
47	25.119	50526	3485.14	50646.1	3.94585	563.712
48	19.953	51024.9	3490.75	51144.1	3.91366	565.712
49	15.849	51525.8	3479.68	51643.2	3.86348	567.662
50	12.589	52046.7	3479.56	52162.8	3.8248	569.672
51	10	52535	3478.89	52650.1	3.78861	572.087
52	7.9433	53009.1	3487.98	53123.8	3.76461	574.392
53	6.3096	53520.5	3503.77	53635.1	3.74558	576.777
54	5.0119	53963.3	3533.2	54078.8	3.74604	580.472
55	3.9811	54404.5	3590.31	54522.9	3.77564	583.322
56	3.1623	54832.9	3653.19	54954.5	3.81164	585.877
57	2.5119	55300.2	3787.41	55429.8	3.91796	588.538
58	1.9953	55767.4	3940.92	55906.5	4.0422	591.143
59	1.5849	56196.8	4183.43	56352.3	4.25738	593.933
60	1.2589	56606.8	4484.31	56784.1	4.52943	596.848
61	1	57081.4	4847.25	57286.9	4.85381	602.423
62	0.79433	57609.7	5308.89	57853.8	5.26509	605.523
63	0.63096	58112.7	5910.39	58412.5	5.80734	609.048
64	0.50119	58690.3	6627.57	59063.3	6.4428	612.958
65	0.39811	59347.9	7545.78	59825.6	7.24599	617.153
66	0.31623	60000.8	8629.95	60618.3	8.18475	622.403
67	0.25119	60852	9713.21	61622.3	9.06906	628.138
68	0.19953	61795.2	11155.5	62794.1	10.233	634.373
69	0.15849	62674.7	12826.5	63973.7	11.566	641.634
70	0.12589	63646.4	15097	65412.5	13.344	650.259
71	0.1	65091.4	17646.8	67441.1	15.1688	661.064

File: Z_p18_3.txt
Index	Frequency (Hz)	Z' (Ω)	-Z'' (Ω)	Z (Ω)	-Phase (°)	Time (s)
1	1000000	3254.61	7421.18	8103.48	66.3199	809.509
2	794330	4987.52	7825.76	9279.97	57.4898	811.575
3	630960	6799.53	8746.5	11078.6	52.1385	814.172
4	501190	8789.35	9723.46	13107.2	47.8885	816.668
5	398110	11126.4	11471	15980.7	45.8738	826.098
6	316230	13559.4	12110.4	18180.2	41.7692	828.269
7	251190	15594.7	12344.3	19889.1	38.3642	836.748
8	199530	17992.3	12616.6	21975	35.039	838.769
9	158490	20345.1	12646.7	23955.5	31.8654	840.77
10	125890	22721.4	12486.1	25926.1	28.7901	842.991
11	100000	24924.5	12045.2	27682.5	25.793	845.167
12	79433	27297.8	11450	29601.9	22.7554	847.118
13	63096	28822.3	10786.7	30774.6	20.5182	849.129
14	50119	30507.6	9978.32	32097.9	18.1117	851.105
15	39811	31969.4	9106.89	33241.2	15.9003	853.161
16	31623	33309.7	8188.94	34301.5	13.8118	855.567
17	25119	34211.9	7492.14	35022.7	12.3523	857.583
18	19953	35164.6	6862.57	35827.9	11.0428	859.679
19	15849	35997	6227.7	36531.7	9.81537	861.745
20	12589	36720.5	5711.19	37162	8.84046	864.041
21	10000	37443	5200.67	37802.5	7.90754	868.799
22	7943.3	38059.6	4816.65	38363.2	7.21276	870.79
23	6309.6	38596.4	4485.76	38856.2	6.6293	872.861
24	5011.9	39143.9	4216.36	39370.3	6.14787	874.962
25	3981.1	39625.2	3997.36	39826.3	5.76047	876.928
26	3162.3	40106.2	3824.81	40288.2	5.44765	879.034
27	2511.9	40580.2	3692.76	40747.8	5.19954	882.03
28	1995.3	41046	3590.77	41202.7	4.99961	884.076
29	1584.9	41514.2	3522.22	41663.3	4.84958	886.382
30	1258.9	41980.2	3470.15	42123.3	4.72542	888.378
31	1000	42422.6	3439.63	42561.8	4.63541	890.314
32	794.33	42901.2	3425.04	43037.7	4.56456	892.47
33	630.96	43380.8	3425.88	43515.9	4.5154	894.516
34	501.19	43887.5	3433.17	44021.6	4.47295	896.507
35	398.11	44352.2	3445.84	44485.9	4.44253	898.523
36	316.23	44851.5	3461.75	44984.9	4.41347	900.564
37	251.19	45341.2	3478.65	45474.4	4.38723	902.53
38	199.53	45872.9	3495.79	46005.9	4.35785	904.586
39	158.49	46376.5	3510.03	46509.1	4.32822	906.872
40	125.89	46908.2	3517.48	47039.9	4.28838	908.948
41	100	47413.9	3529.44	47545.1	4.25719	911.029
42	79.433	47943.3	3528.45	48072.9	4.20917	913.07
43	63.096	48436.4	3534.89	48565.2	4.17405	915.276
44	50.119	48967.5	3506.57	49092.9	4.09597	917.372
45	39.811	49486.3	3508.98	49610.6	4.05594	928.519
46	31.623	49996.6	3493.52	50118.5	3.99706	932.155
47	25.119	50535.3	3480.1	50655	3.93944	934.451
48	19.953	51036.7	3490.21	51155.9	3.91216	937.002
49	15.849	51545.6	3486.37	51663.4	3.8694	939.703
50	12.589	52041.3	3477.22	52157.4	3.82262	942.444
51	10	52522.8	3481.7	52638	3.79255	945.375
52	7.9433	52995.7	3485.28	53110.2	3.76266	948.291
53	6.3096	53476.5	3501.43	53591	3.74616	951.277
54	5.0119	53955.4	3536.83	54071.2	3.75043	954.523
55	3.9811	54429.1	3588.08	54547.2	3.7716	957.574
56	3.1623	54888.1	3642.45	55008.8	3.79666	960.98
57	2.5119	55287	3791.71	55416.9	3.92334	965.521
58	1.9953	55753.3	3979.27	55895.1	4.08244	968.967
59	1.5849	56235.9	4202.56	56392.7	4.27382	972.428
60	1.2589	56584.1	4485.61	56761.6	4.53255	975.91
61	1	57114.1	4864.54	57320.9	4.86826	982.482
62	0.79433	57584.4	5328.4	57830.4	5.28664	986.568
63	0.63096	58131.1	5924.44	58432.2	5.81921	991.234
64	0.50119	58641.5	6604.37	59012.2	6.42574	996.16
65	0.39811	59341.7	7504.41	59814.3	7.20743	1001.36
66	0.31623	60063.7	8639.77	60681.9	8.18548	1006.91
67	0.25119	60956.4	9857.79	61748.4	9.18627	1013.12
68	0.19953	61661.4	11224.2	62674.7	10.3166	1020.42
69	0.15849	62721.8	12889.8	64032.5	11.613	1028.45
70	0.12589	63868.4	14999.7	65606.1	13.2166	1038.27
71	0.1	64957.5	17394.7	67246.2	14.9913	1049.74

File: Z_p19_1.txt
Index	Frequency (Hz)	Z' (Ω)	-Z'' (Ω)	Z (Ω)	-Phase (°)	Time (s)
1	1000000	3436.7	9536.79	10137.1	70.1827	142.211
2	794330	5989.79	10375.8	11980.6	60.0029	143.566
3	630960	8637.91	11595.5	14459.2	53.3163	144.946
4	501190	11462.3	13056.7	17374.2	48.7204	146.426
5	398110	15034.4	16031.4	21978.2	46.8381	151.477
6	316230	18241.3	17112.9	25011.9	43.1719	152.837
7	251190	21379.3	17268.2	27482.1	38.928	158.017
8	199530	24765.2	17585	30373.4	35.3774	159.372
9	158490	28168.6	17563.7	33195.7	31.9444	160.912
10	125890	31350.4	17046.2	35685	28.5343	162.367
11	100000	34330.7	16325.7	38014.9	25.4331	163.767
12	79433	37068.3	15375.4	40130.6	22.528	165.107
13	63096	39498.7	14269.4	41997.2	19.8629	166.422
14	50119	41629.6	13063.9	43631.3	17.4225	169.002
15	39811	43554.5	11778.7	45119.1	15.1329	170.192
16	31623	44933.9	10526.2	46150.3	13.1844	171.612
17	25119	46272.4	9605.58	47258.9	11.7273	172.942
18	19953	47402.3	8734.43	48200.3	10.4403	174.307
19	15849	48472.3	7890.78	49110.4	9.24605	175.732
20	12589	49285.6	7207.06	49809.8	8.31943	177.107
21	10000	50183.2	6570.11	50611.4	7.45888	179.507
22	7943.3	50938.8	6094.26	51302.1	6.82237	180.862
23	6309.6	51635	5698.12	51948.4	6.29733	182.272
24	5011.9	52282.2	5380.56	52558.3	5.87584	183.582
25	3981.1	52896.1	5114.25	53142.7	5.52247	184.897
26	3162.3	53533	4915.25	53758.2	5.24603	186.262
27	2511.9	54134.6	4759.68	54343.5	5.0247	187.682
28	1995.3	54742.3	4648.81	54939.4	4.85401	189.092
29	1584.9	55368.4	4571.23	55556.8	4.71965	190.297
30	1258.9	55942.5	4525.62	56125.3	4.62502	191.507
31	1000	56554	4496.59	56732.5	4.546	192.837
32	794.33	57204.3	4480.58	57379.5	4.4786	194.227
33	630.96	57829.3	4481.49	58002.7	4.43129	195.622
34	501.19	58465.1	4490.01	58637.3	4.39158	197.072
35	398.11	59107.6	4507.74	59279.2	4.36112	198.557
36	316.23	59768.4	4521.15	59939.2	4.32587	200.057
37	251.19	60442.2	4540.46	60612.5	4.29603	201.658
38	199.53	61110.1	4556.69	61279.8	4.26438	203.073
39	158.49	61779.7	4569.02	61948.5	4.2297	204.528
40	125.89	62462.5	4560.84	62628.8	4.17617	205.938
41	100	63114.7	4556.56	63279	4.1293	207.338
42	79.433	63821.9	4543.95	63983.5	4.07243	208.693
43	63.096	64463.3	4498.87	64620.1	3.99217	210.173
44	50.119	65140.2	4485.95	65294.5	3.93951	211.588
45	39.811	65862.7	4459.57	66013.5	3.87359	220.743
46	31.623	66495.5	4415.58	66641.9	3.79911	222.398
47	25.119	67158.9	4359.28	67300.2	3.71386	223.953
48	19.953	67779.8	4330.3	67917.9	3.65553	225.928
49	15.849	68459.6	4276.91	68593.1	3.57482	227.988
50	12.589	69062.8	4215.86	69191.4	3.49322	229.983
51	10	69679.4	4145.1	69802.5	3.40441	232.273
52	7.9433	70301	4083.79	70419.5	3.32458	234.588
53	6.3096	70889.2	4013.63	71002.8	3.24053	236.908
54	5.0119	71427.6	3945.48	71536.5	3.16166	239.378
55	3.9811	71962.2	3910.96	72068.4	3.11082	242.033
56	3.1623	72497.4	3851.73	72599.7	3.04122	244.508
57	2.5119	72919	3846.05	73020.3	3.01922	247.163
58	1.9953	73418.5	3849.42	73519.3	3.00134	250.053
59	1.5849	73889.8	3948.91	73995.2	3.05916	252.958
60	1.2589	74337.4	4077.48	74449.1	3.13959	255.839
61	1	74797.3	4248.56	74917.8	3.25097	261.199
62	0.79433	75275.1	4482.76	75408.5	3.40804	264.379
63	0.63096	75723.9	4801.4	75876	3.62808	267.899
64	0.50119	76226.7	5236.69	76406.3	3.92998	271.894
65	0.39811	76758.3	5815.28	76978.3	4.3325	276.284
66	0.31623	77360.7	6434.78	77627.9	4.75486	281.119
67	0.25119	78004	7308.63	78345.6	5.35273	286.604
68	0.19953	78617.9	8202.06	79044.6	5.95602	292.869
69	0.15849	79452.5	9353.05	80001.1	6.71389	300.269
70	0.12589	80332.2	10514.2	81017.3	7.45671	308.824
71	0.1	81020.9	12204.4	81935	8.56625	319.11

File: Z_p19_2.txt
Index	Frequency (Hz)	Z' (Ω)	-Z'' (Ω)	Z (Ω)	-Phase (°)	Time (s)
1	1000000	3336.99	9609.81	10172.7	70.8505	462.772
2	794330	5905.62	10301.4	11874.1	60.175	464.312
3	630960	8507.4	11537.9	14335.2	53.597	465.817
4	501190	11281.7	13166.2	17338.5	49.4078	467.377
5	398110	14997.6	16009.3	21936.8	46.8688	472.567
6	316230	18099.4	17080.9	24886.7	43.3418	474.052
7	251190	21237.5	17234.1	27350.4	39.0591	479.417
8	199530	24604.2	17622.6	30264.2	35.6118	480.737
9	158490	27972	17532	33012.2	32.0783	482.118
10	125890	31230.8	17068.3	35590.5	28.6576	483.593
11	100000	34219.9	16322	37913.1	25.4999	485.073
12	79433	36967.6	15372.3	40036.3	22.5791	486.553
13	63096	39431.2	14301.6	41944.7	19.9356	488.118
14	50119	41634.8	13057.6	43634.3	17.4126	489.518
15	39811	43568.2	11917.6	45168.8	15.2983	490.998
16	31623	44977.2	10470.4	46179.8	13.1047	492.358
17	25119	46204.4	9574.87	47186.1	11.7076	493.718
18	19953	47377.8	8705.4	48170.9	10.4116	495.098
19	15849	48388	7878.54	49025.2	9.24776	496.473
20	12589	49343	7196.73	49865	8.29815	497.863
21	10000	50093.1	6562.51	50521.2	7.46359	500.223
22	7943.3	50860.1	6077.05	51221.9	6.81372	501.503
23	6309.6	51547.3	5685.73	51859.9	6.29435	502.843
24	5011.9	52210.1	5365.25	52485.1	5.86728	504.208
25	3981.1	52855.1	5109.12	53101.4	5.52122	505.523
26	3162.3	53471.7	4908.14	53696.5	5.24446	506.993
27	2511.9	54090.5	4757.38	54299.3	5.02636	508.523
28	1995.3	54670.8	4645.62	54867.8	4.85701	510.028
29	1584.9	55291	4565.83	55479.2	4.72067	511.518
30	1258.9	55867.1	4517.35	56049.5	4.62281	513.028
31	1000	56497.7	4476.16	56674.7	4.52993	514.523
32	794.33	57111.2	4474.56	57286.2	4.47987	515.973
33	630.96	57733.1	4471.58	57906	4.42887	517.198
34	501.19	58384.8	4486.17	58556.9	4.39385	518.558
35	398.11	59023.8	4500.5	59195.1	4.36031	519.853
36	316.23	59717	4523.3	59888.1	4.33163	521.243
37	251.19	60361.4	4540.28	60531.9	4.30159	522.628
38	199.53	61074.9	4553.08	61244.4	4.26347	524.008
39	158.49	61706.3	4557.48	61874.4	4.22405	525.398
40	125.89	62395.3	4564.23	62562	4.18374	526.818
41	100	63063.2	4556.61	63227.6	4.1327	528.113
42	79.433	63745.1	4541.47	63906.7	4.07511	529.553
43	63.096	64438.1	4524.96	64596.8	4.01682	531.058
44	50.119	65109.6	4525.88	65266.8	3.97633	532.553
45	39.811	65763.3	4447.48	65913.5	3.86894	541.729
46	31.623	66421.1	4404.65	66567	3.79396	543.369
47	25.119	67073	4351.79	67214.1	3.71223	544.989
48	19.953	67755.1	4319.96	67892.6	3.64815	546.829
49	15.849	68343.7	4263.79	68476.6	3.56991	548.849
50	12.589	68990.4	4213.27	69118.9	3.49474	550.874
51	10	69628.9	4130.23	69751.2	3.39468	553.229
52	7.9433	70211.6	4095.05	70330.9	3.33796	555.694
53	6.3096	70821.3	4001.42	70934.3	3.23379	558.074
54	5.0119	71346.7	3933.8	71455.1	3.15589	560.769
55	3.9811	71909.3	3890	72014.5	3.09645	563.254
56	3.1623	72353	3835.2	72454.6	3.03422	565.799
57	2.5119	72899.9	3829.73	73000.4	3.00722	568.544
58	1.9953	73358.2	3863.53	73459.9	3.01479	571.319
59	1.5849	73833.2	3931.82	73937.8	3.04828	574.039
60	1.2589	74260.6	4016	74369.1	3.09553	576.874
61	1	74703.8	4242.97	74824.2	3.25075	582.004
62	0.79433	75183.2	4467.52	75315.8	3.40062	585.414
63	0.63096	75653.9	4817.16	75807.2	3.64331	588.869
64	0.50119	76130.4	5240.69	76310.6	3.93793	592.74
65	0.39811	76688.9	5793.95	76907.4	4.32057	596.96
66	0.31623	77275.5	6475.12	77546.3	4.78978	602.17
67	0.25119	77850.3	7200.28	78182.5	5.28419	607.635
68	0.19953	78572.6	8110.02	78990	5.89302	613.825
69	0.15849	79275.4	9240.4	79812.1	6.64844	621.195
70	0.12589	80269.6	10633.7	80970.9	7.54627	629.76
71	0.1	81031.2	11977.9	81911.7	8.40851	639.965

File: Z_p19_3.txt
Index	Frequency (Hz)	Z' (Ω)	-Z'' (Ω)	Z (Ω)	-Phase (°)	Time (s)
1	1000000	3266.23	9498.64	10044.5	71.0238	693.358
2	794330	5955.46	10397	11981.9	60.1957	695.474
3	630960	8501.29	11583.8	14368.6	53.7252	697.51
4	501190	11142.9	12957.2	17089.6	49.3051	699.691
5	398110	15064	16103.5	22051	46.9104	708.126
6	316230	18293.7	16919.8	24918.6	42.7657	710.058
7	251190	21204.1	17186.2	27294.3	39.0253	718.383
8	199530	24591.4	17480.2	30171.1	35.4061	720.289
9	158490	27975.9	17509.8	33003.7	32.042	722.31
10	125890	31304.2	17113.7	35676.8	28.6651	724.301
11	100000	34235.6	16333.3	37932.2	25.5052	726.332
12	79433	36984.8	15367	40050.2	22.5626	728.373
13	63096	39417.5	14267.2	41920.1	19.8977	730.454
14	50119	41577.4	13047.1	43576.5	17.422	732.47
15	39811	43525.7	11855.9	45111.5	15.2371	734.541
16	31623	44995.9	10557.7	46217.9	13.2048	736.502
17	25119	46183	9554.4	47161	11.6885	738.493
18	19953	47366.3	8692.75	48157.4	10.3993	740.529
19	15849	48457.6	7851.86	49089.6	9.20397	742.495
20	12589	49256.1	7180.52	49776.7	8.29412	744.616
21	10000	50059.5	6544.87	50485.5	7.44871	748.138
22	7943.3	50834.5	6074.22	51196.1	6.81397	750.004
23	6309.6	51542.4	5688.44	51855.4	6.29791	752.04
24	5011.9	52190.6	5360.81	52465.2	5.86462	754.076
25	3981.1	52790.1	5102.51	53036.1	5.52086	756.067
26	3162.3	53422.6	4903.58	53647.2	5.2444	758.068
27	2511.9	54016.8	4750.19	54225.3	5.02561	760.059
28	1995.3	54632.1	4633.2	54828.3	4.8475	762.025
29	1584.9	55219	4564.11	55407.3	4.72503	763.882
30	1258.9	55845	4497.12	56025.8	4.60402	765.908
31	1000	56436.5	4480.24	56614.1	4.53894	767.864
32	794.33	57077	4475.38	57252.2	4.48336	769.93
33	630.96	57712.6	4474.52	57885.8	4.43333	771.876
34	501.19	58370.2	4481.8	58542	4.39069	773.857
35	398.11	58997.8	4499.37	59169.1	4.36113	775.828
36	316.23	59680.7	4517.56	59851.4	4.32878	777.764
37	251.19	60338.3	4532.66	60508.3	4.29603	779.81
38	199.53	60962.4	4542.9	61131.5	4.26179	781.796
39	158.49	61661.6	4554.33	61829.6	4.2242	783.837
40	125.89	62336.8	4550.02	62502.6	4.17467	785.933
41	100	63012.8	4551.83	63177	4.13168	787.959
42	79.433	63665	4534.2	63826.3	4.0737	790.02
43	63.096	64349.5	4485.79	64505.6	3.98763	792.171
44	50.119	64945.9	4484.33	65100.5	3.94984	794.292
45	39.811	65709.9	4446.36	65860.2	3.8711	804.083
46	31.623	66364	4411.76	66510.5	3.80332	806.314
47	25.119	67060	4349.16	67200.8	3.71071	808.615
48	19.953	67666.1	4319.32	67803.8	3.6524	811.151
49	15.849	68282.6	4267.41	68415.8	3.57612	813.717
50	12.589	68918.4	4207.28	69046.7	3.49342	816.483
51	10	69540.5	4132.34	69663.2	3.40071	819.445
52	7.9433	70138.7	4069.95	70256.7	3.32098	822.416
53	6.3096	70737.2	4004.86	70850.4	3.2404	825.462
54	5.0119	71317.1	3940.36	71425.9	3.16245	828.558
55	3.9811	71833.9	3870.11	71938.1	3.08387	831.659
56	3.1623	72337.3	3809.76	72437.6	3.01479	834.75
57	2.5119	72865.8	3820.46	72965.9	3.00135	837.991
58	1.9953	73321.7	3837.25	73422	2.99581	841.292
59	1.5849	73684.2	3901.69	73787.4	3.03107	844.738
60	1.2589	74174	4006.22	74282.1	3.0916	848.239
61	1	74645	4219.89	74764.2	3.23564	854.756
62	0.79433	75093.6	4467.67	75226.4	3.40478	858.492
63	0.63096	75574	4790.5	75725.7	3.62703	862.598
64	0.50119	76082.1	5215.95	76260.7	3.92188	867.029
65	0.39811	76573.7	5742.66	76788.8	4.28888	872.066
66	0.31623	77145.1	6452.1	77414.5	4.78085	877.532
67	0.25119	77876.5	7204.64	78209.1	5.28559	883.698
68	0.19953	78465.8	8174.37	78890.4	5.94747	890.564
69	0.15849	79204.9	9202.99	79737.8	6.62761	898.565
70	0.12589	80025.2	10581.9	80721.8	7.53264	907.726
71	0.1	81108.5	12125.4	82009.9	8.50251	918.722