Folder: Streamlit_cement_impedance/data/20200619 (part 2)

File: Z_p20_1.txt
Index	Frequency (Hz)	Z' (Ω)	-Z'' (Ω)	Z (Ω)	-Phase (°)	Time (s)
1	1000000	3090.21	8242.64	8802.87	69.4487	140.848
2	794330	5102.98	9014.77	10358.9	60.4871	142.188
3	630960	7221.61	10230.9	12522.9	54.783	143.583
4	501190	9236.73	11524	14768.8	51.287	145.098
5	398110	12286.2	14181.1	18763.2	49.095	150.224
6	316230	15168.7	15316.1	21556.3	45.2771	151.684
7	251190	17639.3	15773.3	23663.1	41.8034	156.949
8	199530	20659.3	16488.5	26432.5	38.5938	158.249
9	158490	23807.4	16858	29171.7	35.3022	159.619
10	125890	26903.9	16880.6	31761.2	32.1058	161.009
11	100000	29920.7	16609.7	34221.8	29.0358	162.434
12	79433	32831.3	16119.5	36575	26.1501	163.754
13	63096	35574	15377.3	38755.3	23.377	165.149
14	50119	38007.2	14514.5	40684.3	20.9013	166.589
15	39811	40390.1	13471.3	42577.4	18.4451	168.049
16	31623	42338.3	12264.5	44078.9	16.1551	169.454
17	25119	43866.9	11329.9	45306.4	14.4818	170.884
18	19953	45406.4	10456.9	46594.9	12.9689	172.329
19	15849	46747.7	9598.04	47722.8	11.6025	173.809
20	12589	47917.9	8735.85	48707.7	10.3321	175.264
21	10000	49022.1	8020.01	49673.8	9.29127	177.579
22	7943.3	49993.8	7407.55	50539.6	8.42816	178.809
23	6309.6	50904	6879.22	51366.7	7.69639	180.124
24	5011.9	51731.8	6424.68	52129.2	7.07944	181.464
25	3981.1	52500.2	6028.35	52845.2	6.55031	182.804
26	3162.3	53204	5701.47	53508.7	6.11661	184.154
27	2511.9	53908.5	5432.12	54181.4	5.75402	185.564
28	1995.3	54577.7	5218.84	54826.7	5.46214	186.959
29	1584.9	55237.2	5048.17	55467.4	5.2218	188.364
30	1258.9	55873.4	4908.32	56088.5	5.02039	189.814
31	1000	56514.4	4808.63	56718.6	4.8634	191.299
32	794.33	57176.2	4731.39	57371.6	4.73051	192.804
33	630.96	57854.6	4678.38	58043.5	4.62313	194.229
34	501.19	58483.9	4640.55	58667.7	4.53677	195.664
35	398.11	59123.7	4618.14	59303.8	4.46629	197.059
36	316.23	59801.5	4607.01	59978.7	4.40528	198.454
37	251.19	60472.9	4594.32	60647.2	4.34459	199.834
38	199.53	61083.7	4584.79	61255.5	4.29243	201.159
39	158.49	61768	4583.87	61937.9	4.2442	202.465
40	125.89	62466.1	4565.4	62632.7	4.18009	203.895
41	100	63081.4	4548.94	63245.2	4.12459	205.18
42	79.433	63791.4	4535.68	63952.4	4.06698	206.685
43	63.096	64437.1	4507.31	64594.6	4.00126	208.145
44	50.119	65090.5	4473.99	65244.1	3.93203	209.485
45	39.811	65755.2	4451.48	65905.7	3.87289	218.54
46	31.623	66400.4	4421.14	66547.5	3.8093	220.155
47	25.119	67086.5	4373.31	67228.9	3.72978	221.915
48	19.953	67699.8	4354.6	67839.7	3.68032	223.855
49	15.849	68336.5	4311.49	68472.3	3.61012	225.78
50	12.589	68973.2	4277.81	69105.8	3.54901	227.985
51	10	69592.6	4228.95	69721	3.47743	230.295
52	7.9433	70221.9	4191.78	70346.9	3.41612	232.665
53	6.3096	70819.3	4156.41	70941.2	3.35886	234.95
54	5.0119	71367.1	4131.07	71486.5	3.31286	237.595
55	3.9811	71898	4116.5	72015.8	3.27688	240.1
56	3.1623	72462.7	4133.43	72580.5	3.26474	242.775
57	2.5119	72956.7	4188.37	73076.8	3.28568	245.365
58	1.9953	73413.4	4247.1	73536.1	3.31098	247.965
59	1.5849	73881.2	4392.81	74011.6	3.40268	250.77
60	1.2589	74323.3	4643.49	74468.2	3.57502	253.655
61	1	74868.6	4945.64	75031.8	3.77933	258.761
62	0.79433	75328.6	5367.27	75519.6	4.07552	262.066
63	0.63096	75843.5	5876.46	76070.8	4.43051	265.526
64	0.50119	76360.9	6600.67	76645.7	4.94039	269.331
65	0.39811	76934.3	7479.82	77297	5.55304	273.556
66	0.31623	77741.8	8534.08	78208.8	6.26454	278.246
67	0.25119	78401.6	9813.48	79013.4	7.13457	283.631
68	0.19953	79288.1	11242.3	80081.1	8.07019	289.991
69	0.15849	80339.8	13062.7	81394.8	9.23509	297.451
70	0.12589	81762	15178.1	83158.9	10.5166	306.121
71	0.1	83025.7	17244	84797.6	11.7332	316.362

File: Z_p20_2.txt
Index	Frequency (Hz)	Z' (Ω)	-Z'' (Ω)	Z (Ω)	-Phase (°)	Time (s)
1	1000000	3039.56	8224.92	8768.59	69.718	461.964
2	794330	5101.52	8993.77	10339.9	60.4369	463.524
3	630960	7223.28	10167	12471.7	54.6076	465.039
4	501190	9244.89	11542.8	14788.7	51.308	466.604
5	398110	12249.4	14118.9	18692	49.0553	471.744
6	316230	14829.8	15464.4	21425.9	46.2	473.079
7	251190	17609.5	15742	23620	41.7951	478.069
8	199530	20677.3	16409.7	26397.5	38.436	479.524
9	158490	23767.7	16848.3	29133.6	35.3319	481.009
10	125890	26884.1	16838.9	31722.3	32.061	482.455
11	100000	29873.3	16579.6	34165.7	29.0301	484.01
12	79433	32777.8	16069.5	36505	26.1167	485.405
13	63096	35426.8	15345.6	38607.6	23.4205	486.84
14	50119	37961.5	14492.8	40633.9	20.8956	488.385
15	39811	40287.9	13482.1	42483.9	18.5025	489.91
16	31623	42234.6	12246.7	43974.3	16.1705	491.36
17	25119	43749	11290.3	45182.3	14.4706	492.77
18	19953	45288.4	10372.3	46461	12.8999	494.18
19	15849	46676	9524.71	47637.9	11.5334	495.63
20	12589	47802.1	8714.51	48589.9	10.3318	497.06
21	10000	48956	8002.32	49605.7	9.28344	499.335
22	7943.3	49927.9	7393.29	50472.3	8.42312	500.535
23	6309.6	50817.5	6860.75	51278.5	7.68888	501.865
24	5011.9	51637	6400.44	52032.2	7.0658	503.23
25	3981.1	52395.2	6022.22	52740.1	6.55671	504.585
26	3162.3	53134.8	5692.49	53438.9	6.11494	505.945
27	2511.9	53821.6	5424.54	54094.2	5.75526	507.335
28	1995.3	54502.1	5207.49	54750.3	5.45785	508.835
29	1584.9	55147.3	5037.71	55376.9	5.21948	510.22
30	1258.9	55786.3	4903.7	56001.4	5.02347	511.555
31	1000	56443.1	4801.18	56646.9	4.86201	512.91
32	794.33	57089.5	4723.56	57284.5	4.72985	514.21
33	630.96	57717.3	4671.37	57906	4.62717	515.525
34	501.19	58373.8	4635.8	58557.6	4.54065	516.845
35	398.11	59023.6	4610.14	59203.4	4.46612	518.13
36	316.23	59701.4	4596.58	59878	4.40269	519.485
37	251.19	60355.2	4581.37	60528.8	4.34081	520.885
38	199.53	60999.6	4576.02	61171	4.29014	522.14
39	158.49	61686	4568.36	61854.9	4.2355	523.595
40	125.89	62348.2	4560.89	62514.8	4.18384	525.105
41	100	63012.6	4544.95	63176.3	4.12546	526.61
42	79.433	63691	4527.58	63851.8	4.06612	528.185
43	63.096	64350.3	4484.36	64506.3	3.98631	529.775
44	50.119	64951.9	4534.76	65110	3.99375	531.35
45	39.811	65683.8	4445.88	65834.1	3.87222	540.441
46	31.623	66318.4	4403.05	66464.4	3.79844	542.166
47	25.119	66989.9	4359.17	67131.6	3.7231	543.746
48	19.953	67606.8	4339.12	67745.9	3.6723	545.681
49	15.849	68240.1	4318	68376.6	3.62066	547.736
50	12.589	68855.6	4255.45	68987	3.53652	549.751
51	10	69480	4224.66	69608.3	3.47953	552.136
52	7.9433	70079.9	4176.14	70204.2	3.41029	554.436
53	6.3096	70655.9	4140.01	70777.1	3.35335	556.876
54	5.0119	71224.5	4109.51	71343	3.30219	559.421
55	3.9811	71820.9	4111.24	71938.5	3.27621	561.916
56	3.1623	72313.6	4127.55	72431.3	3.26681	564.391
57	2.5119	72817.3	4141.33	72935	3.25507	567.096
58	1.9953	73331.8	4255.75	73455.2	3.32139	569.796
59	1.5849	73764.6	4416.02	73896.6	3.426	572.616
60	1.2589	74249.4	4583.48	74390.8	3.53244	575.511
61	1	74745.6	4953.75	74909.6	3.79172	580.561
62	0.79433	75216.7	5330.95	75405.4	4.05403	583.886
63	0.63096	75733.2	5856.63	75959.3	4.42202	587.431
64	0.50119	76213.1	6536	76492.9	4.90166	591.227
65	0.39811	76784.7	7357.04	77136.4	5.47302	595.447
66	0.31623	77383.3	8522.42	77851.2	6.2848	600.152
67	0.25119	78330.4	9641.55	78921.5	7.01714	605.517
68	0.19953	79293.1	11144.3	80072.5	8.00025	611.867
69	0.15849	80333.1	12838.3	81352.5	9.07982	619.222
70	0.12589	81380.8	15101.1	82770	10.5123	627.722
71	0.1	83204.9	17372.4	84999.2	11.7934	637.912

File: Z_p20_3.txt
Index	Frequency (Hz)	Z' (Ω)	-Z'' (Ω)	Z (Ω)	-Phase (°)	Time (s)
1	1000000	3107.51	8319.85	8881.24	69.5191	752.612
2	794330	5149.76	8971.03	10344	60.1423	754.682
3	630960	7135.87	10167.1	12421.3	54.9365	756.897
4	501190	9218.79	11539.7	14770	51.3796	759.022
5	398110	12300.2	14109.8	18718.5	48.9196	767.498
6	316230	14837.8	15132.7	21193.4	45.5639	769.498
7	251190	17594.7	15721.2	23595.1	41.7813	777.843
8	199530	20632.8	16387.2	26348.7	38.4576	779.773
9	158490	23709.8	16759.9	29035.3	35.2556	781.728
10	125890	26875.1	16829.7	31709.7	32.0556	783.688
11	100000	29888	16580.5	34179.1	29.0195	785.828
12	79433	32789.6	16034.6	36500.2	26.0593	787.878
13	63096	35463.5	15327.7	38634.2	23.3745	789.908
14	50119	37952.3	14394.4	40590.4	20.7705	791.933
15	39811	40284.5	13426.1	42462.9	18.4323	794.108
16	31623	42168.1	12239.9	43908.6	16.1861	796.023
17	25119	43751.6	11297	45186.6	14.478	797.963
18	19953	45282.6	10416.4	46465.2	12.9545	800.033
19	15849	46611	9575.67	47584.5	11.6092	801.958
20	12589	47724.7	8707.57	48512.6	10.3401	803.998
21	10000	48892	7991.66	49540.8	9.28321	807.658
22	7943.3	49872.2	7385.23	50416	8.42332	809.608
23	6309.6	50784.6	6853.73	51245	7.68602	811.588
24	5011.9	51599.3	6395.2	51994.1	7.06518	813.588
25	3981.1	52361.6	6010.24	52705.4	6.54795	815.524
26	3162.3	53087.6	5688.58	53391.5	6.11616	817.664
27	2511.9	53775.5	5419.2	54047.9	5.75452	819.594
28	1995.3	54433.2	5204.31	54681.4	5.46139	821.584
29	1584.9	55120.5	5035.61	55350	5.21985	823.504
30	1258.9	55742.2	4896.34	55956.9	5.01992	825.414
31	1000	56412	4798.61	56615.8	4.86208	827.514
32	794.33	57031.9	4719.04	57226.8	4.7301	829.654
33	630.96	57697	4669.1	57885.6	4.62655	831.754
34	501.19	58312.5	4625.05	58495.6	4.53491	833.924
35	398.11	58978.4	4606.91	59158.1	4.46641	835.859
36	316.23	59645.9	4587.39	59822.1	4.39798	837.879
37	251.19	60287.1	4583.72	60461.1	4.34793	839.894
38	199.53	60953.8	4574.74	61125.3	4.29214	841.964
39	158.49	61628	4562.45	61796.6	4.234	843.964
40	125.89	62290.3	4551.17	62456.3	4.17883	846.179
41	100	62952	4539.89	63115.4	4.12485	848.329
42	79.433	63623	4517.37	63783.2	4.06131	850.379
43	63.096	64323.2	4522.96	64482	4.0222	852.489
44	50.119	65017.4	4507.76	65173.5	3.96606	854.584
45	39.811	65650.3	4442.94	65800.4	3.87164	864.424
46	31.623	66257.7	4396.46	66403.4	3.79623	866.919
47	25.119	66948.2	4359.22	67089.9	3.72547	869.345
48	19.953	67583.3	4342.8	67722.7	3.67668	872.07
49	15.849	68228.9	4304.25	68364.6	3.60975	874.865
50	12.589	68865.5	4250.69	68996.5	3.53207	877.625
51	10	69473.8	4213.62	69601.4	3.47077	880.705
52	7.9433	70013.7	4164.39	70137.4	3.40393	883.765
53	6.3096	70635.1	4142.31	70756.5	3.3562	886.845
54	5.0119	71212.8	4108.56	71331.2	3.30197	890.025
55	3.9811	71754.4	4108.23	71871.9	3.27684	893.275
56	3.1623	72275	4095.47	72390.9	3.2432	896.53
57	2.5119	72776.1	4176.35	72895.8	3.28439	899.945
58	1.9953	73318.5	4260.09	73442.1	3.32537	903.425
59	1.5849	73798.7	4394.86	73929.4	3.40805	907.03
60	1.2589	74227	4586.18	74368.6	3.53558	910.765
61	1	74672.1	4926.05	74834.4	3.77428	917.49
62	0.79433	75183.9	5337.75	75373.1	4.06096	921.5
63	0.63096	75670.6	5826.71	75894.6	4.40314	925.741
64	0.50119	76189.8	6538.6	76469.9	4.9051	930.396
65	0.39811	76778.1	7436.07	77137.4	5.53192	935.416
66	0.31623	77463.1	8402.83	77917.5	6.19097	940.941
67	0.25119	78194.5	9699.16	78793.8	7.07079	947.051
68	0.19953	79340.3	11280.7	80138.2	8.09215	954.106
69	0.15849	80280	13059	81335.3	9.23926	962.206
70	0.12589	81596.4	15135.8	82988.4	10.5087	971.616
71	0.1	83149.1	17272.4	84924.1	11.735	982.652

File: Z_p21_1.txt
Index	Frequency (Hz)	Z' (Ω)	-Z'' (Ω)	Z (Ω)	-Phase (°)	Time (s)
1	1000000	3841.19	6174.03	7271.41	58.1121	141.573
2	794330	5276.87	6207.72	8147.47	49.6338	143.158
3	630960	6660.28	6544.93	9337.85	44.4995	148.644
4	501190	8144.9	6907.57	10679.6	40.3008	154.279
5	398110	10023.7	7539.6	12542.7	36.9497	159.619
6	316230	11623	7653.49	13916.5	33.364	161.004
7	251190	12783.7	7316.1	14729.1	29.7826	167.719
8	199530	14162	7131.12	15856.1	26.727	169.409
9	158490	15474.5	6885.61	16937.3	23.9874	171.184
10	125890	16662.4	6488.82	17881.3	21.2774	172.784
11	100000	17729.1	6045.73	18731.6	18.8296	174.694
12	79433	18667.4	5564.02	19478.9	16.5973	176.029
13	63096	19476.8	5040.91	20118.5	14.5107	177.534
14	50119	20195.4	4521.28	20695.4	12.6191	179.124
15	39811	20786.7	4018.28	21171.5	10.9409	180.819
16	31623	21252.6	3540.06	21545.4	9.45697	182.279
17	25119	21654.8	3113.57	21877.5	8.18202	184.019
18	19953	21993.5	2753.4	22165.2	7.13582	185.574
19	15849	22317.7	2431.54	22449.8	6.21791	187.189
20	12589	22558.6	2138.51	22659.8	5.41533	188.794
21	10000	22770.6	1870.57	22847.3	4.69622	191.844
22	7943.3	22973.1	1662.68	23033.2	4.13956	193.684
23	6309.6	23141.8	1481.86	23189.2	3.66387	195.249
24	5011.9	23298.1	1326.77	23335.8	3.25934	196.889
25	3981.1	23444.9	1195.07	23475.4	2.91804	198.344
26	3162.3	23564.7	1081.13	23589.5	2.62685	199.795
27	2511.9	23670.6	987.713	23691.2	2.38942	201.39
28	1995.3	23784.3	903.764	23801.4	2.1761	202.79
29	1584.9	23879.6	832.986	23894.1	1.99783	204.07
30	1258.9	23982.4	771.69	23994.8	1.84299	205.525
31	1000	24071.9	723.165	24082.8	1.72076	206.875
32	794.33	24167	676.548	24176.5	1.60356	208.665
33	630.96	24235	640.464	24243.5	1.51382	210.105
34	501.19	24323.7	606.969	24331.3	1.42945	211.54
35	398.11	24400.4	581.841	24407.3	1.36599	213.43
36	316.23	24472.1	558.178	24478.5	1.30662	215.065
37	251.19	24547.7	541.919	24553.7	1.26466	216.805
38	199.53	24611.9	526.469	24617.5	1.22542	218.05
39	158.49	24675.8	517.403	24681.2	1.20121	219.435
40	125.89	24730.7	512.726	24736	1.18771	220.92
41	100	24791.3	510.177	24796.5	1.17892	222.41
42	79.433	24855.6	516.189	24861	1.18972	223.88
43	63.096	24908.3	528.07	24913.9	1.21452	225.43
44	50.119	25029.5	460.829	25033.8	1.05478	253.901
45	39.811	25000.7	565.273	25007.1	1.29525	263.091
46	31.623	25062.4	581.716	25069.1	1.32964	264.776
47	25.119	25127.2	642.88	25135.5	1.46559	266.471
48	19.953	25212.4	679.54	25221.6	1.5439	268.491
49	15.849	25312.5	745.932	25323.5	1.68796	270.556
50	12.589	25405.8	818.447	25418.9	1.84515	272.581
51	10	25439.9	944.138	25457.4	2.12541	274.936
52	7.9433	25563.4	1082.14	25586.3	2.42398	277.291
53	6.3096	25686.8	1182.34	25714	2.63541	279.661
54	5.0119	25831.4	1310.75	25864.6	2.90484	282.096
55	3.9811	25962.9	1476.36	26004.9	3.25457	284.666
56	3.1623	26122.8	1721.66	26179.4	3.77071	287.216
57	2.5119	26258.1	1944.61	26330	4.23544	289.736
58	1.9953	26496.4	2428.43	26607.4	5.23662	292.556
59	1.5849	26892.9	2547.32	27013.3	5.41096	295.541
60	1.2589	26878.3	2966.36	27041.5	6.29783	298.681
61	1	27375.1	3193.75	27560.8	6.65439	304.061
62	0.79433	27736	3607.22	27969.6	7.41002	307.517
63	0.63096	28101.8	4106.57	28400.3	8.3139	311.107
64	0.50119	28530.1	4676.95	28910.9	9.30972	317.547
65	0.39811	29046.9	5317.07	29529.5	10.3732	323.182
66	0.31623	29466.7	6115.27	30094.6	11.7242	328.092
67	0.25119	30116.9	7041.73	30929.2	13.1601	333.947
68	0.19953	30701.1	8145.76	31763.4	14.8596	340.192
69	0.15849	31283.4	9427.43	32673	16.7705	348.057
70	0.12589	32163.7	10896.5	33959.3	18.7155	356.827
71	0.1	32619.7	12844.8	35057.5	21.4933	367.333

File: Z_p21_2.txt
Index	Frequency (Hz)	Z' (Ω)	-Z'' (Ω)	Z (Ω)	-Phase (°)	Time (s)
1	1000000	3817.87	6076.26	7176.15	57.8578	510.9
2	794330	5194.79	6227.79	8109.94	50.1675	512.225
3	630960	6660.58	6534.74	9330.93	44.4536	513.84
4	501190	8112.62	6920.53	10663.4	40.4661	515.32
5	398110	10044	7511.88	12542.4	36.7926	524.39
6	316230	11527	7631.59	13824.4	33.507	525.725
7	251190	12792.7	7311.75	14734.8	29.7503	532.09
8	199530	14180.5	7168.69	15889.5	26.8181	535.746
9	158490	15471.7	6892.81	16937.7	24.0135	538.156
10	125890	16672.2	6506.3	17896.8	21.3181	541.251
11	100000	17719.8	6051.68	18724.7	18.856	542.711
12	79433	18681.3	5546.69	19487.4	16.5367	543.996
13	63096	19495.1	5040.03	20136	14.4952	545.326
14	50119	20193.2	4533.48	20695.8	12.6534	546.826
15	39811	20789.6	4015.54	21173.9	10.9321	548.721
16	31623	21302.5	3505.8	21589	9.34553	550.766
17	25119	21657.9	3116.63	21881	8.1888	552.211
18	19953	22014.9	2758.36	22187	7.14169	554.096
19	15849	22331.1	2420.13	22461.8	6.18528	556.321
20	12589	22560.9	2140.03	22662.2	5.4186	558.081
21	10000	22796.1	1876.84	22873.2	4.70663	560.321
22	7943.3	22988.7	1665.35	23048.9	4.14339	561.531
23	6309.6	23169.7	1484.91	23217.3	3.66698	562.881
24	5011.9	23323.9	1329	23361.7	3.26118	564.236
25	3981.1	23460.5	1197.19	23491	2.92128	565.546
26	3162.3	23578.4	1082.92	23603.2	2.62967	566.871
27	2511.9	23698.9	986.226	23719.4	2.38298	568.651
28	1995.3	23814.8	904.96	23832	2.17618	569.981
29	1584.9	23908	835.006	23922.6	2.00029	571.226
30	1258.9	24007.6	777.911	24020.2	1.85589	572.566
31	1000	24085.5	722.815	24096.3	1.71896	574.101
32	794.33	24183.1	679.429	24192.7	1.60931	575.586
33	630.96	24270.9	642.771	24279.4	1.51702	576.826
34	501.19	24338	609.903	24345.6	1.43552	578.146
35	398.11	24423.9	582.938	24430.9	1.36725	579.416
36	316.23	24490.5	558.958	24496.9	1.30746	580.701
37	251.19	24560.5	542.432	24566.5	1.2652	582.036
38	199.53	24630.8	528.993	24636.5	1.23035	583.761
39	158.49	24687.6	519.697	24693.1	1.20595	585.396
40	125.89	24763.4	516.292	24768.8	1.19439	586.872
41	100	24807.6	515.048	24813	1.18939	588.872
42	79.433	24878.2	519.202	24883.7	1.19557	590.212
43	63.096	24927.2	529.496	24932.8	1.21688	591.642
44	50.119	24949.2	599.763	24956.4	1.37709	609.927
45	39.811	25038.6	576.919	25045.3	1.31993	619.482
46	31.623	25082.1	585.632	25088.9	1.33753	624.282
47	25.119	25164.6	649.257	25173	1.47793	626.732
48	19.953	25232.8	699.491	25242.5	1.58791	628.787
49	15.849	25314.4	754.695	25325.6	1.70765	631.447
50	12.589	25409.2	821.109	25422.4	1.8509	633.892
51	10	25484.9	913	25501.3	2.05175	636.157
52	7.9433	25573.4	1045.2	25594.8	2.34041	638.512
53	6.3096	25731.7	1186.17	25759	2.63934	640.843
54	5.0119	25821.9	1303.44	25854.8	2.88972	643.413
55	3.9811	25970.8	1468.24	26012.3	3.23574	645.863
56	3.1623	26206.8	1677.31	26260.4	3.66211	648.313
57	2.5119	26393	1996.81	26468.4	4.32656	651.343
58	1.9953	26602.6	2229.6	26695.9	4.79084	654.518
59	1.5849	26671.9	2742.31	26812.5	5.87033	657.373
60	1.2589	26962.1	2683.55	27095.4	5.68395	660.248
61	1	27421.5	3213.14	27609.1	6.68323	666.683
62	0.79433	27796.4	3650.86	28035.2	7.48255	669.783
63	0.63096	28146.3	4110.7	28444.9	8.30916	673.263
64	0.50119	28598.9	4701.47	28982.8	9.33554	677.013
65	0.39811	29018.7	5361.74	29509.9	10.4684	681.468
66	0.31623	29569.7	6195.48	30211.7	11.8335	686.268
67	0.25119	30095.8	6996.33	30898.3	13.0871	691.848
68	0.19953	30663.5	8208.82	31743.3	14.987	699.304
69	0.15849	31310.2	9503.4	32720.7	16.8843	706.919
70	0.12589	32205.1	11079	34057.5	18.9839	715.654
71	0.1	32898.7	12905	35339.3	21.4184	727.664

File: Z_p21_3.txt
Index	Frequency (Hz)	Z' (Ω)	-Z'' (Ω)	Z (Ω)	-Phase (°)	Time (s)
1	1000000	3814.02	6196.83	7276.5	58.3886	875.708
2	794330	5193.31	6244.04	8121.48	50.2489	877.889
3	630960	6657.67	6586.1	9364.9	44.6904	880.05
4	501190	8156.47	6900.89	10684.1	40.2333	882.236
5	398110	10069.3	7572.19	12598.8	36.9433	891.455
6	316230	11501.6	7615.47	13794.3	33.5094	893.556
7	251190	12790	7318.08	14735.6	29.777	900.36
8	199530	14194.9	7182.82	15908.7	26.8401	902.596
9	158490	15485.5	6890.44	16949.3	23.9872	905.382
10	125890	16680.4	6517.12	17908.3	21.3408	908.563
11	100000	17749.7	6061.52	18756.2	18.855	910.714
12	79433	18716.4	5566.9	19526.8	16.5643	912.845
13	63096	19503.4	5043.48	20145	14.4988	914.941
14	50119	20218.2	4520.37	20717.3	12.6029	917.152
15	39811	20817.1	4028.31	21203.2	10.9519	920.143
16	31623	21274.1	3510.97	21561.9	9.3713	923.45
17	25119	21690	3124.07	21913.9	8.19609	925.686
18	19953	22035.1	2758.17	22207.1	7.1347	927.737
19	15849	22320.3	2423.06	22451.5	6.19567	932.223
20	12589	22586.9	2138.03	22687.9	5.40737	934.439
21	10000	22815.5	1875.99	22892.5	4.70054	938.871
22	7943.3	23008.9	1667.97	23069.3	4.14627	942.812
23	6309.6	23196.9	1488.46	23244.6	3.67144	945.033
24	5011.9	23337.5	1331.12	23375.4	3.26449	947.204
25	3981.1	23474.6	1198.25	23505.2	2.92209	949.555
26	3162.3	23609.4	1084.48	23634.3	2.62999	951.646
27	2511.9	23720.5	989.368	23741.1	2.38839	953.777
28	1995.3	23817.5	904.163	23834.7	2.17403	956.233
29	1584.9	23930.4	837.059	23945	2.00333	958.224
30	1258.9	24026.7	777.312	24039.3	1.85298	960.3
31	1000	24109.4	724.68	24120.3	1.72168	963.661
32	794.33	24204.3	681.079	24213.8	1.61181	965.972
33	630.96	24277.2	642.698	24285.7	1.51646	968.408
34	501.19	24357.8	610.758	24365.4	1.43636	970.784
35	398.11	24430.5	583.098	24437.4	1.36726	973.46
36	316.23	24505.7	561.05	24512.1	1.31154	975.922
37	251.19	24581.2	544.157	24587.2	1.26816	978.538
38	199.53	24657.7	529.198	24663.3	1.22948	980.919
39	158.49	24714.6	519.985	24720	1.2053	983.635
40	125.89	24780.1	515.364	24785.5	1.19144	985.776
41	100	24840	514.266	24845.3	1.18604	987.992
42	79.433	24900.5	519.037	24905.9	1.19413	991.808
43	63.096	24960.5	531.069	24966.1	1.21886	994.319
44	50.119	24976.3	701.592	24986.2	1.60903	1034.7
45	39.811	25044.4	566.766	25050.8	1.29641	1046.04
46	31.623	25157.7	570.56	25164.1	1.29921	1052.98
47	25.119	25196.9	632.799	25204.9	1.43863	1057
48	19.953	25254.9	696.027	25264.5	1.57868	1060.04
49	15.849	25312.7	777.137	25324.6	1.75851	1062.79
50	12.589	25455.7	850.747	25469.9	1.91415	1065.6
51	10	25492.7	908.592	25508.9	2.04123	1069.08
52	7.9433	25603.1	1020.01	25623.5	2.28141	1072.64
53	6.3096	25769.5	1168.96	25796	2.59728	1075.82
54	5.0119	25822.1	1327.06	25856.2	2.94199	1079.17
55	3.9811	26020.7	1515.71	26064.8	3.33371	1082.88
56	3.1623	26223.1	1667.77	26276	3.63907	1086.23
57	2.5119	26468.4	2019.98	26545.4	4.36416	1090.03
58	1.9953	26426.1	2046.46	26505.2	4.4282	1093.54
59	1.5849	26863.5	2574.48	26986.6	5.47426	1098.33
60	1.2589	26805.7	2991.24	26972.1	6.36728	1102.26
61	1	27451.6	3213.25	27639	6.67616	1109.64
62	0.79433	27811.3	3644.22	28049.1	7.46514	1113.85
63	0.63096	28207.9	4132.74	28509.1	8.33509	1118.14
64	0.50119	28593.8	4677.97	28974	9.29132	1122.6
65	0.39811	29054.3	5373.8	29547.1	10.4788	1127.49
66	0.31623	29574.5	6094.13	30195.8	11.6434	1133.07
67	0.25119	30085.5	7010.02	30891.3	13.1161	1139.3
68	0.19953	30813.7	8202.13	31886.6	14.9056	1146.25
69	0.15849	31407.8	9553	32828.5	16.9177	1154.25
70	0.12589	32218.4	11117	34082.4	19.0371	1163.44
71	0.1	33031.3	12785.4	35419.4	21.1598	1174.32

File: Z_p22_1.txt
Index	Frequency (Hz)	Z' (Ω)	-Z'' (Ω)	Z (Ω)	-Phase (°)	Time (s)
1	1000000	4081.75	6798.71	7929.88	59.0206	58.9189
2	794330	5778.43	6692.42	8841.87	49.1918	60.4539
3	630960	7336.92	6890.27	10065.1	43.2018	61.894
4	501190	8950.73	7248.36	11517.6	39.0008	63.454
5	398110	11065.7	7792.54	13534.1	35.1535	68.6591
6	316230	12610.2	7802.42	14828.8	31.7467	70.0191
7	251190	13946	7287.66	15735.4	27.5898	74.4642
8	199530	15297.7	7005.98	16825.7	24.6066	76.0792
9	158490	16538	6597.8	17805.5	21.7495	77.5243
10	125890	17652.7	6101.63	18677.5	19.0676	78.9293
11	100000	18600.7	5567.47	19416.1	16.6632	80.4793
12	79433	19420	5022.44	20058.9	14.5003	82.5243
13	63096	20101.1	4472.08	20592.5	12.5428	83.9144
14	50119	20676.4	3950.58	21050.4	10.817	85.3644
15	39811	21168.3	3456.2	21448.6	9.27298	86.7244
16	31623	21553.5	3033.18	21765.9	8.01051	88.0495
17	25119	21842.9	2657.64	22004	6.93714	89.4395
18	19953	22132	2331.14	22254.4	6.01273	91.1045
19	15849	22349.1	2057.42	22443.6	5.25973	92.7045
20	12589	22559.2	1808.68	22631.5	4.58388	94.1196
21	10000	22742.2	1585.99	22797.4	3.98924	96.4196
22	7943.3	22917	1416.17	22960.8	3.53613	97.8196
23	6309.6	23072.2	1271.05	23107.2	3.15325	99.3197
24	5011.9	23207.6	1145.33	23235.8	2.82534	100.77
25	3981.1	23324.7	1037.35	23347.7	2.54652	102.135
26	3162.3	23421.5	945.788	23440.6	2.31242	103.56
27	2511.9	23538.5	867.885	23554.5	2.11159	104.98
28	1995.3	23627.2	802.214	23640.8	1.94462	106.42
29	1584.9	23731.6	742.706	23743.2	1.79255	107.87
30	1258.9	23815.3	690.556	23825.3	1.6609	109.67
31	1000	23898.8	649.687	23907.6	1.5572	111.35
32	794.33	23978.2	606.677	23985.9	1.44934	112.875
33	630.96	24050.2	569.634	24056.9	1.35681	114.38
34	501.19	24118.8	536.995	24124.8	1.27545	116.11
35	398.11	24201.6	506.879	24206.9	1.19983	117.445
36	316.23	24259.9	480.346	24264.6	1.13431	118.805
37	251.19	24332.3	454.742	24336.5	1.07067	120.4
38	199.53	24391.8	433.616	24395.6	1.01845	121.86
39	158.49	24442.7	415.022	24446.2	0.972754	123.41
40	125.89	24501.8	394.461	24505	0.922339	124.9
41	100	24539.3	378.66	24542.2	0.884049	126.435
42	79.433	24588.1	363.359	24590.7	0.846648	127.95
43	63.096	24633.5	350.254	24636	0.81461	129.64
44	50.119	24707	609.68	24714.6	1.41356	156.566
45	39.811	24680.1	322.087	24682.2	0.747694	165.636
46	31.623	24751.9	343.492	24754.2	0.795067	167.351
47	25.119	24799.3	326.022	24801.5	0.753189	169.041
48	19.953	24811.1	341.897	24813.5	0.789486	171.066
49	15.849	24853	366.155	24855.7	0.844068	173.141
50	12.589	24858.2	385.737	24861.1	0.889017	175.581
51	10	24919.3	419.253	24922.8	0.96388	178.071
52	7.9433	24985.4	420.412	24989	0.963984	180.866
53	6.3096	25015.9	468.999	25020.3	1.07406	183.586
54	5.0119	25077.7	509.825	25082.9	1.16465	185.986
55	3.9811	25131.3	574.354	25137.9	1.30921	188.571
56	3.1623	25209.9	689.2	25219.3	1.56599	191.121
57	2.5119	25255.5	758.481	25266.9	1.72021	193.876
58	1.9953	25282.2	773.096	25294	1.75149	196.791
59	1.5849	25251.1	900.244	25267.2	2.04182	199.712
60	1.2589	25518.4	1000.68	25538	2.24565	202.732
61	1	25613.1	1296.87	25645.9	2.8986	208.162
62	0.79433	25718.5	1497.69	25762.1	3.33279	211.287
63	0.63096	25842.7	1733.43	25900.8	3.83742	215.072
64	0.50119	25985.8	2024.31	26064.5	4.45437	219.042
65	0.39811	26121	2354.56	26226.9	5.15074	223.457
66	0.31623	26308.1	2801.67	26456.8	6.07878	228.292
67	0.25119	26550.2	3233.18	26746.3	6.94307	233.707
68	0.19953	26754.7	3811.23	27024.8	8.10729	239.947
69	0.15849	26958.2	4515.28	27333.8	9.50832	247.247
70	0.12589	27191.8	5374.06	27717.8	11.1796	256.588
71	0.1	27626	6577.16	28398.1	13.3916	266.753