Folder: Streamlit_cement_impedance/data/20200504 (part 8)

File: Z_p49_1.txt
Index	Frequency (Hz)	Z' (Ω)	-Z'' (Ω)	Z (Ω)	-Phase (°)	Time (s)
1	1000000	1225.22	548.2	1342.27	24.1052	23.8402
2	794330	1284.74	510.161	1382.32	21.6577	25.2552
3	630960	1360.67	475.103	1441.23	19.2476	26.6553
4	501190	1436.38	440.766	1502.49	17.0591	28.2553
5	398110	1494.97	394.371	1546.11	14.7779	29.6903
6	316230	1559.87	360.671	1601.02	13.0191	31.0703
7	251190	1612.68	326.155	1645.33	11.4335	32.3504
8	199530	1657.38	293.637	1683.19	10.0468	33.7604
9	158490	1683.59	256.087	1702.96	8.64884	35.2754
10	125890	1718.45	232.141	1734.06	7.69336	36.5754
11	100000	1749.27	210.564	1761.9	6.86383	37.9655
12	79433	1774.24	191.704	1784.57	6.16678	39.2555
13	63096	1796.51	175.545	1805.07	5.58091	40.6405
14	50119	1816.26	161.959	1823.47	5.09566	42.0805
15	39811	1834.87	150.9	1841.07	4.70143	43.3856
16	31623	1850.82	142.031	1856.27	4.38823	44.6956
17	25119	1865.5	135.939	1870.44	4.16779	46.1056
18	19953	1881.19	131.885	1885.8	4.01029	47.5056
19	15849	1896.25	129.46	1900.67	3.9056	48.8957
20	12589	1911.27	128.841	1915.6	3.85654	50.2457
21	10000	1928.1	129.722	1932.46	3.84903	51.5657
22	7943.3	1943.66	131.988	1948.14	3.88481	52.8757
23	6309.6	1960.1	135.35	1964.77	3.95015	54.2658
24	5011.9	1978.42	139.718	1983.34	4.0396	55.6308
25	3981.1	1996.98	145.163	2002.25	4.15759	56.9158
26	3162.3	2016.88	151.505	2022.56	4.2959	58.1708
27	2511.9	2038.18	158.493	2044.33	4.44648	59.5809
28	1995.3	2059.19	166.29	2065.89	4.61692	60.8809
29	1584.9	2083.58	174.822	2090.9	4.79614	62.1209
30	1258.9	2107.42	184.102	2115.44	4.99264	63.4359
31	1000	2134.51	193.828	2143.29	5.18862	64.781
32	794.33	2162.17	204.349	2171.8	5.39905	66.196
33	630.96	2191.06	215.509	2201.63	5.61746	67.466
34	501.19	2222.58	227.155	2234.16	5.83555	68.761
35	398.11	2256.26	239.732	2268.96	6.06501	70.0211
36	316.23	2290.29	252.572	2304.18	6.29311	71.3711
37	251.19	2328.01	265.911	2343.15	6.51623	72.6811
38	199.53	2367.5	279.708	2383.97	6.73796	73.9911
39	158.49	2407.96	293.489	2425.78	6.94909	75.4112
40	125.89	2451.89	307.282	2471.07	7.14332	76.8812
41	100	2495.54	320.765	2516.07	7.32438	78.3412
42	79.433	2544.5	334.674	2566.42	7.493	79.8363
43	63.096	2594.79	348.374	2618.07	7.64677	81.3513
44	50.119	2646.72	361.938	2671.36	7.78687	82.7413
45	39.811	2698.77	375.452	2724.76	7.92014	91.9065
46	31.623	2752.13	389.863	2779.6	8.0628	93.5615
47	25.119	2807.4	404.284	2836.36	8.19463	95.1465
48	19.953	2863.64	422.186	2894.59	8.38671	97.0716
49	15.849	2920.44	440.762	2953.52	8.58249	99.0316
50	12.589	2980.47	462.444	3016.14	8.81956	101.167
51	10	3041.39	486.735	3080.09	9.09234	103.432
52	7.9433	3103.09	515.563	3145.63	9.43324	105.747
53	6.3096	3170.37	549.438	3217.63	9.83194	108.142
54	5.0119	3238.01	588.635	3291.08	10.3032	110.507
55	3.9811	3313.75	634.35	3373.92	10.837	114.132
56	3.1623	3393.44	687.2	3462.32	11.4481	116.592
57	2.5119	3477.76	748.207	3557.33	12.1416	119.162
58	1.9953	3569.87	817.115	3662.19	12.8925	121.797
59	1.5849	3672.8	896.436	3780.61	13.7163	125.947
60	1.2589	3783.84	984.651	3909.85	14.5863	128.797
61	1	3906.63	1088.6	4055.47	15.5707	133.962
62	0.79433	4043.26	1202.54	4218.3	16.5634	137.102
63	0.63096	4197.47	1325.82	4401.88	17.5294	140.712
64	0.50119	4355.16	1469.71	4596.46	18.6477	144.537
65	0.39811	4540.5	1628.08	4823.57	19.7262	148.788
66	0.31623	4737.39	1815.96	5073.52	20.9731	153.643
67	0.25119	4986.45	2015.48	5378.37	22.0082	159.078
68	0.19953	5243.07	2243.23	5702.79	23.1636	165.373
69	0.15849	5524.8	2476.87	6054.61	24.1476	172.573
70	0.12589	5800.17	2760.86	6423.73	25.4543	181.183
71	0.1	6186.54	3093.72	6916.96	26.5683	191.383

File: Z_p49_2.txt
Index	Frequency (Hz)	Z' (Ω)	-Z'' (Ω)	Z (Ω)	-Phase (°)	Time (s)
1	1000000	1224.27	548.176	1341.4	24.1208	333.715
2	794330	1285.14	511.263	1383.1	21.694	335.125
3	630960	1361.03	475.737	1441.78	19.2666	336.57
4	501190	1437.68	439.852	1503.46	17.0112	338.13
5	398110	1495.72	395.481	1547.12	14.8105	339.655
6	316230	1561.28	361.092	1602.49	13.0224	341.07
7	251190	1613.91	326.549	1646.61	11.4385	342.37
8	199530	1659.24	294.365	1685.15	10.0602	343.78
9	158490	1685.51	256.497	1704.92	8.65273	345.19
10	125890	1720.7	232.652	1736.36	7.70014	346.455
11	100000	1750.06	210.872	1762.72	6.87068	347.855
12	79433	1776.14	192.062	1786.49	6.17169	349.165
13	63096	1799	175.979	1807.59	5.58692	350.645
14	50119	1818.45	162.274	1825.68	5.09943	352.025
15	39811	1836.86	151.151	1843.06	4.70416	353.415
16	31623	1853.55	142.303	1859	4.39018	354.79
17	25119	1868.83	136.363	1873.79	4.17331	356.12
18	19953	1883.84	132.136	1888.47	4.01227	357.57
19	15849	1899.49	129.827	1903.92	3.90999	358.84
20	12589	1914.6	129.179	1918.95	3.85992	360.145
21	10000	1930.03	130.027	1934.41	3.8542	361.52
22	7943.3	1946	132.235	1950.49	3.8874	362.945
23	6309.6	1964.1	135.621	1968.78	3.95001	364.245
24	5011.9	1982.02	140.277	1986.98	4.04834	365.535
25	3981.1	2000.01	145.524	2005.29	4.1616	366.835
26	3162.3	2019.22	151.826	2024.92	4.3	368.195
27	2511.9	2040.88	158.934	2047.06	4.45292	369.6
28	1995.3	2062.4	166.673	2069.12	4.62032	370.95
29	1584.9	2086.31	175.287	2093.66	4.80258	372.2
30	1258.9	2110.83	184.313	2118.86	4.99029	373.586
31	1000	2136.92	194.41	2145.74	5.19826	374.871
32	794.33	2165.54	204.915	2175.22	5.40553	376.191
33	630.96	2195.66	216.182	2206.27	5.62315	377.486
34	501.19	2226.44	227.864	2238.07	5.84356	378.896
35	398.11	2259.06	240.295	2271.8	6.0717	380.196
36	316.23	2294.91	253.322	2308.85	6.29906	381.501
37	251.19	2332.51	266.685	2347.71	6.52254	382.851
38	199.53	2371.71	280.413	2388.23	6.74293	384.166
39	158.49	2413.51	294.486	2431.41	6.95662	385.516
40	125.89	2456.29	308.107	2475.54	7.14959	386.866
41	100	2502.57	321.852	2523.18	7.3285	388.211
42	79.433	2549.75	335.531	2571.73	7.49671	389.616
43	63.096	2599.83	348.965	2623.15	7.64488	391.146
44	50.119	2651.08	363	2675.82	7.79676	392.651
45	39.811	2704.36	376.505	2730.44	7.92586	401.806
46	31.623	2758.83	390.672	2786.35	8.05996	403.441
47	25.119	2813.37	405.316	2842.42	8.19807	405.126
48	19.953	2870.51	423.488	2901.58	8.39234	407.021
49	15.849	2927.71	441.981	2960.88	8.58481	408.961
50	12.589	2984.9	463.016	3020.6	8.81742	410.901
51	10	3049.32	488.086	3088.14	9.09383	413.221
52	7.9433	3112.3	516.985	3154.95	9.43131	415.571
53	6.3096	3175.29	550.83	3222.71	9.84139	417.931
54	5.0119	3245.54	589.516	3298.65	10.2949	420.461
55	3.9811	3320.29	635.667	3380.59	10.8381	422.941
56	3.1623	3399.62	688.075	3468.55	11.442	425.486
57	2.5119	3487.05	750.11	3566.81	12.1401	428.077
58	1.9953	3578.57	820.067	3671.33	12.9071	430.782
59	1.5849	3681.37	897.614	3789.22	13.7028	433.532
60	1.2589	3792.28	989.375	3919.21	14.6221	436.402
61	1	3915.29	1089.72	4064.11	15.5531	439.632
62	0.79433	4053.72	1203.25	4228.53	16.5322	443.032
63	0.63096	4204.65	1328.35	4409.49	17.5326	446.512
64	0.50119	4365.54	1472.02	4607.03	18.6336	450.392
65	0.39811	4555.44	1633.3	4839.39	19.7247	454.702
66	0.31623	4752.05	1814.03	5086.52	20.8937	459.617
67	0.25119	4998.98	2031.21	5395.89	22.1131	465.097
68	0.19953	5251.78	2256.23	5715.93	23.2489	471.287
69	0.15849	5543.91	2493.94	6079.04	24.2207	478.537
70	0.12589	5829.3	2752.86	6446.62	25.2788	487.198
71	0.1	6177.79	3110.14	6916.51	26.7224	497.378

File: Z_p49_3.txt
Index	Frequency (Hz)	Z' (Ω)	-Z'' (Ω)	Z (Ω)	-Phase (°)	Time (s)
1	1000000	1227.22	549.371	1344.57	24.116	529.735
2	794330	1287.19	512.225	1385.36	21.6996	532.085
3	630960	1363.47	477.4	1444.64	19.2969	534.285
4	501190	1439.68	442.544	1506.16	17.087	536.555
5	398110	1497.73	396.165	1549.24	14.816	538.87
6	316230	1563.28	362.165	1604.68	13.0436	541.12
7	251190	1615.98	327.41	1648.82	11.4535	543.265
8	199530	1661.18	294.706	1687.12	10.0601	545.451
9	158490	1687.78	257.11	1707.25	8.66163	549.441
10	125890	1724.14	233.363	1739.87	7.70814	551.521
11	100000	1753.21	211.384	1765.9	6.87495	553.721
12	79433	1779.45	192.803	1789.86	6.18385	555.906
13	63096	1801.21	176.242	1809.81	5.5884	557.966
14	50119	1820.97	162.776	1828.23	5.10807	560.231
15	39811	1839.84	151.596	1846.08	4.7103	562.421
16	31623	1855.7	142.614	1861.17	4.39465	564.511
17	25119	1870.25	136.581	1875.23	4.1768	566.581
18	19953	1886.97	132.359	1891.6	4.01237	568.766
19	15849	1902.75	130.197	1907.2	3.91439	570.946
20	12589	1917.3	129.438	1921.67	3.86221	573.106
21	10000	1933.05	130.339	1937.43	3.85742	575.206
22	7943.3	1949.57	132.532	1954.06	3.88899	577.361
23	6309.6	1966.59	135.928	1971.29	3.95392	579.456
24	5011.9	1984.08	140.293	1989.03	4.04462	581.576
25	3981.1	2002.81	145.774	2008.11	4.1629	583.676
26	3162.3	2023.5	152.071	2029.2	4.29785	585.801
27	2511.9	2044.08	159.256	2050.28	4.45496	587.951
28	1995.3	2066.17	167.089	2072.91	4.62341	590.036
29	1584.9	2088.99	175.546	2096.36	4.80349	592.086
30	1258.9	2114.98	184.813	2123.04	4.99397	594.176
31	1000	2141.31	194.815	2150.15	5.19844	596.211
32	794.33	2168.85	205.294	2178.55	5.40725	598.346
33	630.96	2199.08	216.628	2209.73	5.62596	600.532
34	501.19	2229.38	228.369	2241.05	5.84874	602.552
35	398.11	2263.38	240.905	2276.17	6.07544	604.522
36	316.23	2299.51	254.006	2313.5	6.30338	606.472
37	251.19	2336.54	267.353	2351.78	6.52754	608.592
38	199.53	2375.02	280.933	2391.58	6.74597	610.572
39	158.49	2416.48	294.799	2434.4	6.95544	612.542
40	125.89	2461.36	308.795	2480.65	7.1508	614.622
41	100	2506.46	322.511	2527.12	7.33207	616.872
42	79.433	2555.1	336.199	2577.12	7.49589	619.107
43	63.096	2604.5	349.895	2627.9	7.65144	621.352
44	50.119	2655.74	363.371	2680.48	7.7911	623.547
45	39.811	2708.99	377.192	2735.12	7.92674	633.387
46	31.623	2763.43	391.162	2790.98	8.05664	635.792
47	25.119	2818.55	406.372	2847.7	8.20423	638.067
48	19.953	2875.56	423.704	2906.61	8.38203	640.602
49	15.849	2931.91	442.86	2965.17	8.58951	643.202
50	12.589	2991.35	463.926	3027.11	8.81571	645.877
51	10	3052.58	488.814	3091.47	9.09761	648.852
52	7.9433	3114.93	517.595	3157.64	9.43441	651.872
53	6.3096	3182.31	551.482	3229.74	9.83149	654.948
54	5.0119	3251.5	590.955	3304.76	10.301	658.283
55	3.9811	3326.77	636.441	3387.11	10.8303	661.558
56	3.1623	3405.42	689.494	3474.52	11.4459	664.913
57	2.5119	3492.42	751.383	3572.34	12.1419	668.353
58	1.9953	3586.04	820.882	3678.79	12.8935	671.743
59	1.5849	3689.77	899.822	3797.9	13.7052	675.243
60	1.2589	3798.84	989.199	3925.52	14.5954	678.963
61	1	3920.72	1092.48	4070.08	15.5701	683.193
62	0.79433	4060.58	1204.89	4235.57	16.5271	687.268
63	0.63096	4211.6	1329.74	4416.54	17.5226	691.813
64	0.50119	4373.4	1480.14	4617.08	18.698	696.428
65	0.39811	4557.93	1646.27	4846.13	19.8591	701.473
66	0.31623	4758.03	1820.26	5094.33	20.9351	706.949
67	0.25119	4985.67	2030.4	5383.25	22.1585	713.209
68	0.19953	5271.26	2253.51	5732.76	23.1472	720.289
69	0.15849	5537.14	2517.07	6082.4	24.4456	728.489
70	0.12589	5853.76	2792.95	6485.91	25.5068	737.869
71	0.1	6204.98	3068.46	6922.23	26.3131	748.769

File: Z_p50_1.txt
Index	Frequency (Hz)	Z' (Ω)	-Z'' (Ω)	Z (Ω)	-Phase (°)	Time (s)
1	1000000	1647.08	808.601	1834.86	26.1478	24.9762
2	794330	1737.51	741.69	1889.19	23.1161	26.5012
3	630960	1852.93	681.028	1974.12	20.1804	27.9863
4	501190	1962.6	625.823	2059.96	17.6861	29.4413
5	398110	2057.02	559.089	2131.64	15.2054	30.8913
6	316230	2147.93	506.064	2206.74	13.2574	32.2964
7	251190	2186.56	425.614	2227.6	11.0149	33.6614
8	199530	2259.79	385	2292.35	9.66863	35.0914
9	158490	2317.66	344.451	2343.11	8.45344	36.4714
10	125890	2364.25	306.049	2383.97	7.37587	37.8165
11	100000	2403.74	271.552	2419.03	6.44541	39.3365
12	79433	2435.14	241.065	2447.05	5.65352	40.7715
13	63096	2461.28	214.046	2470.57	4.97024	42.2215
14	50119	2484.02	190.895	2491.34	4.39451	43.5216
15	39811	2504.32	171.276	2510.17	3.91248	45.0066
16	31623	2521.94	154.59	2526.67	3.50773	46.3966
17	25119	2537.61	141.287	2541.54	3.18677	47.8566
18	19953	2550.71	130.183	2554.03	2.92172	49.2717
19	15849	2564.23	121.496	2567.1	2.71272	50.6967
20	12589	2578.22	114.97	2580.78	2.55328	52.1017
21	10000	2590.47	109.909	2592.8	2.42949	53.5417
22	7943.3	2602.79	106.32	2604.96	2.33914	55.1818
23	6309.6	2616.12	104.206	2618.19	2.28102	56.6418
24	5011.9	2628.43	103.036	2630.45	2.24488	57.9968
25	3981.1	2640.96	102.761	2642.96	2.22828	59.3569
26	3162.3	2653.11	103.409	2655.13	2.23205	60.7969
27	2511.9	2666.45	104.957	2668.51	2.25412	62.1469
28	1995.3	2680.77	107.126	2682.91	2.28838	63.4569
29	1584.9	2694.48	110.127	2696.73	2.34046	64.722
30	1258.9	2708.7	113.93	2711.09	2.40849	66.017
31	1000	2724.05	118.727	2726.64	2.49564	67.482
32	794.33	2738.93	124.293	2741.75	2.59832	69.012
33	630.96	2756.81	131.022	2759.92	2.72102	70.3071
34	501.19	2773.38	138.804	2776.85	2.86519	71.6621
35	398.11	2790.43	147.911	2794.35	3.03421	72.9721
36	316.23	2811.89	158.289	2816.34	3.22195	74.3221
37	251.19	2831.43	170.143	2836.54	3.43881	75.8872
38	199.53	2853.68	183.545	2859.58	3.68012	77.1872
39	158.49	2876.54	198.26	2883.37	3.94275	78.5872
40	125.89	2902.46	214.665	2910.39	4.22987	80.0272
41	100	2930.09	233.157	2939.35	4.54964	81.3873
42	79.433	2960.04	253.456	2970.87	4.89407	82.7923
43	63.096	2992.06	275.43	3004.71	5.25948	84.2973
44	50.119	3029.31	300.813	3044.21	5.67091	85.7673
45	39.811	3069.77	328.475	3087.29	6.1076	94.9375
46	31.623	3110.95	359.109	3131.61	6.58473	96.5875
47	25.119	3158.53	393.084	3182.89	7.09409	98.2276
48	19.953	3208.97	432.057	3237.93	7.6682	100.198
49	15.849	3263.69	474.382	3297.99	8.2701	102.143
50	12.589	3324.05	521.138	3364.66	8.91019	104.238
51	10	3389.97	573.647	3438.16	9.60454	106.418
52	7.9433	3460.98	631.833	3518.18	10.3459	108.803
53	6.3096	3540.4	697.382	3608.43	11.1434	111.178
54	5.0119	3625.15	771.584	3706.35	12.0156	113.638
55	3.9811	3718.02	854.629	3814.98	12.9452	116.053
56	3.1623	3819.72	950.128	3936.11	13.9684	118.593
57	2.5119	3931.58	1059.09	4071.73	15.0764	121.278
58	1.9953	4053.27	1183.1	4222.41	16.2719	124.198
59	1.5849	4191.38	1324.74	4395.75	17.5398	128.318
60	1.2589	4338.9	1486.62	4586.51	18.9128	131.043
61	1	4506.63	1674.18	4807.56	20.3796	136.103
62	0.79433	4695.47	1887.65	5060.69	21.9009	139.223
63	0.63096	4897.01	2134.83	5342.11	23.5546	143.018
64	0.50119	5128.65	2429.93	5675.18	25.3514	146.838
65	0.39811	5376.17	2763.65	6044.91	27.2057	151.154
66	0.31623	5668.46	3138.73	6479.43	28.9741	156.614
67	0.25119	6002.74	3587.66	6993.16	30.8655	162.944
68	0.19953	6407.77	4099.87	7607.13	32.6122	169.239
69	0.15849	6826.34	4693.57	8284.23	34.5112	176.649
70	0.12589	7309.87	5421.25	9100.77	36.5619	185.489
71	0.1	7961.24	6232.61	10110.7	38.0563	195.924

File: Z_p50_2.txt
Index	Frequency (Hz)	Z' (Ω)	-Z'' (Ω)	Z (Ω)	-Phase (°)	Time (s)
1	1000000	1644.34	807.224	1831.79	26.1469	223.147
2	794330	1735.77	739.085	1886.57	23.0641	224.662
3	630960	1853.27	682.232	1974.85	20.2098	226.187
4	501190	1962.45	624.756	2059.5	17.6591	227.667
5	398110	2055.35	558.425	2129.86	15.2	229.167
6	316230	2146.66	505.277	2205.33	13.2451	230.582
7	251190	2184.11	424.885	2225.05	11.0085	232.062
8	199530	2257.09	384.211	2289.56	9.66052	233.627
9	158490	2314.97	343.778	2340.36	8.44681	235.237
10	125890	2362.18	305.698	2381.88	7.37386	236.652
11	100000	2401.32	271.016	2416.57	6.43923	238.027
12	79433	2432.23	240.6	2444.1	5.64941	239.402
13	63096	2458.58	213.792	2467.86	4.96979	240.972
14	50119	2482.1	190.631	2489.41	4.39182	242.592
15	39811	2501.77	171.014	2507.61	3.9105	245.002
16	31623	2519.48	154.255	2524.2	3.50356	246.297
17	25119	2535.76	140.953	2539.67	3.18158	247.757
18	19953	2550.15	130.037	2553.46	2.9191	249.237
19	15849	2562.67	121.438	2565.55	2.71307	250.692
20	12589	2576.58	114.756	2579.13	2.55017	252.132
21	10000	2588.95	109.982	2591.29	2.43254	253.612
22	7943.3	2602.54	106.208	2604.7	2.3369	255.042
23	6309.6	2614.86	104.073	2616.93	2.27922	256.507
24	5011.9	2627.16	102.898	2629.17	2.24296	258.022
25	3981.1	2639.21	102.603	2641.2	2.22633	259.497
26	3162.3	2652.51	103.378	2654.53	2.23189	260.987
27	2511.9	2665.55	104.948	2667.62	2.25467	262.402
28	1995.3	2679.58	107.173	2681.73	2.29038	263.677
29	1584.9	2692.86	110.122	2695.11	2.34176	264.982
30	1258.9	2707.14	114.152	2709.54	2.41457	266.422
31	1000	2722.45	118.767	2725.04	2.49795	267.943
32	794.33	2738.09	124.3	2740.91	2.59925	269.398
33	630.96	2755.97	131.161	2759.09	2.72475	270.678
34	501.19	2770.53	138.751	2774.01	2.86704	272.183
35	398.11	2790.16	147.743	2794.07	3.03106	273.613
36	316.23	2809.66	158.255	2814.11	3.2238	275.043
37	251.19	2831.12	170.098	2836.23	3.43829	276.503
38	199.53	2851.09	183.286	2856.98	3.67827	277.948
39	158.49	2875.86	198.376	2882.69	3.94599	279.353
40	125.89	2902.02	215.086	2909.98	4.23877	280.928
41	100	2928.68	233.228	2937.96	4.55319	282.493
42	79.433	2959.69	253.885	2970.56	4.90287	284.078
43	63.096	2993.72	276.358	3006.45	5.27418	285.683
44	50.119	3029.32	301.652	3044.3	5.68662	287.053
45	39.811	3068.57	329.161	3086.18	6.12262	296.398
46	31.623	3111.81	360.181	3132.58	6.6024	298.223
47	25.119	3158.44	394.08	3182.93	7.11206	300.003
48	19.953	3209.03	433.034	3238.11	7.68521	301.918
49	15.849	3264.94	475.516	3299.38	8.28649	304.068
50	12.589	3323.01	522.14	3363.78	8.92981	307.088
51	10	3390.32	574.905	3438.72	9.62425	309.488
52	7.9433	3463.32	634.496	3520.96	10.3817	311.888
53	6.3096	3542.32	700.521	3610.92	11.1863	314.343
54	5.0119	3625.38	774.042	3707.09	12.0521	316.893
55	3.9811	3719.24	858.761	3817.09	13.0016	319.413
56	3.1623	3823.34	954.36	3940.65	14.0154	322.069
57	2.5119	3933.96	1063.4	4075.15	15.1263	324.774
58	1.9953	4058.19	1186.94	4228.21	16.3031	327.519
59	1.5849	4193.99	1329.6	4399.7	17.5899	330.394
60	1.2589	4342.7	1492.09	4591.88	18.962	333.484
61	1	4512.39	1681.16	4815.39	20.4337	337.019
62	0.79433	4700.66	1901	5070.5	22.019	340.344
63	0.63096	4913.68	2142.27	5360.37	23.5563	343.979
64	0.50119	5135.66	2428.03	5680.7	25.3038	347.839
65	0.39811	5403.96	2764.22	6069.9	27.0906	352.209
66	0.31623	5690.82	3148.68	6503.82	28.9554	357.134
67	0.25119	6032.81	3631.8	7041.64	31.0482	362.734
68	0.19953	6402.01	4138.91	7623.41	32.8827	369.249
69	0.15849	6836.74	4745.64	8322.39	34.766	376.755
70	0.12589	7384.69	5454.38	9180.63	36.4498	385.515
71	0.1	7940.27	6185.3	10065.1	37.9178	395.85

File: Z_p50_3.txt
Index	Frequency (Hz)	Z' (Ω)	-Z'' (Ω)	Z (Ω)	-Phase (°)	Time (s)
1	1000000	1645.68	807.408	1833.08	26.1336	437.439
2	794330	1737.76	737.501	1887.78	22.9963	439.876
3	630960	1851.79	680.149	1972.74	20.168	442.277
4	501190	1964.09	625.856	2061.39	17.6745	444.688
5	398110	2056.72	559.181	2131.38	15.2099	447.124
6	316230	2146.5	505.431	2205.2	13.2499	449.37
7	251190	2185.42	425.32	2226.42	11.0131	451.786
8	199530	2258.63	383.977	2291.04	9.64828	454.277
9	158490	2317.88	344.287	2343.31	8.44867	456.698
10	125890	2364.35	306.09	2384.08	7.37652	459.054
11	100000	2402.25	271.565	2417.55	6.44967	461.41
12	79433	2435.16	240.662	2447.02	5.64411	463.751
13	63096	2461.3	214.058	2470.59	4.97048	466.157
14	50119	2484.4	190.954	2491.72	4.39519	468.743
15	39811	2503.61	171.171	2509.46	3.9112	471.149
16	31623	2520.2	154.449	2524.93	3.50695	473.62
17	25119	2536.71	141.013	2540.63	3.18173	475.911
18	19953	2551.19	130.112	2554.51	2.91959	478.467
19	15849	2564.71	121.521	2567.58	2.71277	480.853
20	12589	2577.91	114.84	2580.46	2.5507	483.204
21	10000	2590.92	109.885	2593.25	2.42855	485.61
22	7943.3	2604.69	106.446	2606.87	2.3402	488.076
23	6309.6	2616.12	104.159	2618.19	2.27999	490.497
24	5011.9	2629.53	103.078	2631.55	2.24484	493.024
25	3981.1	2641.22	102.751	2643.22	2.22785	495.475
26	3162.3	2654.23	103.511	2656.24	2.23331	497.976
27	2511.9	2669.36	105.158	2671.43	2.25596	500.267
28	1995.3	2680.78	107.062	2682.92	2.287	502.683
29	1584.9	2695.03	110.261	2697.29	2.34283	504.954
30	1258.9	2709.43	114.031	2711.83	2.40996	507.215
31	1000	2725.21	118.856	2727.8	2.49729	509.526
32	794.33	2741.41	124.525	2744.24	2.60079	511.902
33	630.96	2756.34	131.189	2759.46	2.72496	514.298
34	501.19	2774.32	139.132	2777.81	2.87096	516.594
35	398.11	2791.61	148.4	2795.55	3.04293	518.91
36	316.23	2811.32	158.662	2815.8	3.23016	523.147
37	251.19	2831.98	170.592	2837.12	3.4472	525.573
38	199.53	2855.09	184.105	2861.02	3.68951	527.794
39	158.49	2878.45	199.177	2885.34	3.95833	530.405
40	125.89	2903.27	215.738	2911.27	4.24977	532.786
41	100	2932.44	234.365	2941.79	4.56946	535.192
42	79.433	2962.27	254.907	2973.22	4.91825	537.613
43	63.096	2994.73	277.368	3007.54	5.29156	540.189
44	50.119	3032.2	302.702	3047.27	5.7009	542.72
45	39.811	3073.02	330.861	3090.78	6.14517	552.782
46	31.623	3114.66	361.727	3135.59	6.62448	555.468
47	25.119	3161.5	396.099	3186.22	7.14128	558.094
48	19.953	3213.13	435.398	3242.49	7.71691	561.005
49	15.849	3268.46	478.23	3303.26	8.32427	564.091
50	12.589	3327.68	525.826	3368.97	8.97938	567.137
51	10	3395.31	578.83	3444.29	9.67475	570.378
52	7.9433	3469	638.698	3527.31	10.4322	573.734
53	6.3096	3546.52	705.115	3615.94	11.2448	577.14
54	5.0119	3632.57	780.789	3715.53	12.1307	580.766
55	3.9811	3729.09	866.048	3828.34	13.0747	584.162
56	3.1623	3829.73	961.996	3948.7	14.1005	587.558
57	2.5119	3945.37	1073.99	4088.93	15.2279	591.089
58	1.9953	4070.51	1197.8	4243.08	16.3973	594.71
59	1.5849	4209.93	1341.61	4418.54	17.6759	598.356
60	1.2589	4361.51	1506.63	4614.41	19.0569	604.689
61	1	4531.53	1697.78	4839.13	20.539	611.416
62	0.79433	4724.74	1914.72	5097.98	22.0605	615.512
63	0.63096	4938.19	2161.1	5390.37	23.6356	619.958
64	0.50119	5164.71	2446.31	5714.77	25.345	624.734
65	0.39811	5434.44	2795.58	6111.33	27.2222	630.1
66	0.31623	5713.46	3187.38	6542.4	29.1559	635.746
67	0.25119	6052.85	3645.28	7065.76	31.0581	642.137
68	0.19953	6491.11	4170.77	7715.56	32.7222	649.338
69	0.15849	6905.61	4794.41	8406.77	34.7714	657.46
70	0.12589	7416.89	5489.19	9227.21	36.5049	666.991
71	0.1	8036.11	6273.75	10195	37.979	678.182

File: Z_p51_1.txt
Index	Frequency (Hz)	Z' (Ω)	-Z'' (Ω)	Z (Ω)	-Phase (°)	Time (s)
1	1000000	1051.49	399.042	1124.66	20.7819	26.1482
2	794330	1089.33	367.266	1149.58	18.6315	27.5733
3	630960	1139.91	336.619	1188.57	16.452	29.0083
4	501190	1189.71	306.49	1228.56	14.4462	30.4833
5	398110	1223.57	268.489	1252.68	12.3763	31.9483
6	316230	1266.6	241.468	1289.41	10.7935	33.4784
7	251190	1301	214.946	1318.64	9.38142	35.1734
8	199530	1328.45	190.715	1342.07	8.1697	36.6884
9	158490	1351.93	169.026	1362.45	7.12649	38.0885
10	125890	1371.69	149.778	1379.85	6.23154	39.4085
11	100000	1387.75	133.2	1394.12	5.48261	42.5836
12	79433	1401.09	118.657	1406.11	4.84078	43.8336
13	63096	1413.69	106.386	1417.69	4.30365	45.1786
14	50119	1425.74	96.0541	1428.97	3.85428	46.6536
15	39811	1434.88	87.3519	1437.54	3.48373	47.9436
16	31623	1443.48	80.1622	1445.7	3.17861	49.2587
17	25119	1451.18	74.6166	1453.09	2.94344	50.6637
18	19953	1459.69	70.4214	1461.39	2.76203	51.9637
19	15849	1466.78	67.4052	1468.33	2.63114	53.2787
20	12589	1473.78	65.5689	1475.24	2.54742	54.6838
21	10000	1481.64	64.5543	1483.05	2.49477	56.0438
22	7943.3	1488.99	64.767	1490.4	2.49064	57.3388
23	6309.6	1496.02	65.9096	1497.47	2.52263	58.7188
24	5011.9	1503.05	67.7577	1504.58	2.58115	60.0539
25	3981.1	1511.69	70.5578	1513.34	2.67233	61.3489
26	3162.3	1519.87	74.2281	1521.69	2.79601	62.6789
27	2511.9	1528.53	78.8916	1530.57	2.95456	64.0389
28	1995.3	1538.86	84.493	1541.18	3.14274	65.484
29	1584.9	1548.17	91.1021	1550.85	3.36769	66.769
30	1258.9	1559.22	98.9382	1562.35	3.63076	68.069
31	1000	1572.01	107.983	1575.71	3.92956	69.474
32	794.33	1585.19	118.457	1589.61	4.27362	70.8991
33	630.96	1599.47	130.448	1604.78	4.66255	72.2241
34	501.19	1614.88	144.038	1621.29	5.09695	73.5991
35	398.11	1633.86	159.756	1641.66	5.58452	75.0141
36	316.23	1652.76	177.454	1662.26	6.12827	76.3592
37	251.19	1674.67	197.61	1686.29	6.72972	77.7142
38	199.53	1698.2	220.055	1712.4	7.38334	79.0192
39	158.49	1725.21	245.463	1742.58	8.09773	80.4192
40	125.89	1755.17	273.948	1776.42	8.87117	81.8293
41	100	1787.41	305.785	1813.38	9.708	83.2193
42	79.433	1825.05	341.966	1856.81	10.6127	84.6993
43	63.096	1866.26	382.315	1905.02	11.5772	86.2944
44	50.119	1912.85	427.718	1960.09	12.6042	87.8344
45	39.811	1966.45	479.382	2024.04	13.7004	96.9846
46	31.623	2023.81	536.275	2093.65	14.8413	98.6996
47	25.119	2089.11	601.389	2173.95	16.0594	100.33
48	19.953	2160.92	675.815	2264.13	17.3668	102.35
49	15.849	2239.93	758.012	2364.71	18.6963	104.38
50	12.589	2329.78	851.959	2480.67	20.0866	106.445
51	10	2428.38	957.541	2610.35	21.52	108.8
52	7.9433	2538.19	1078.13	2757.68	23.0139	111.115
53	6.3096	2660.99	1215.13	2925.31	24.5437	113.56
54	5.0119	2793.18	1370.27	3111.19	26.1315	115.935
55	3.9811	2940.16	1550.22	3323.81	27.8008	120.38
56	3.1623	3103.7	1758.51	3567.26	29.5352	122.865
57	2.5119	3282.2	1999.54	3843.3	31.3501	125.59
58	1.9953	3480.71	2281.97	4162.06	33.249	128.24
59	1.5849	3700.82	2614.78	4531.35	35.2428	131
60	1.2589	3947.5	3007.17	4962.44	37.2998	133.855
61	1	4222.87	3472.44	5467.22	39.4303	139.015
62	0.79433	4542.59	4021.95	6067.23	41.5212	142.215
63	0.63096	4894.22	4669.19	6764.23	43.6521	145.815
64	0.50119	5304.32	5446.45	7602.6	45.7575	149.576
65	0.39811	5764.85	6370.47	8591.65	47.857	153.831
66	0.31623	6318.59	7460.47	9776.67	49.7373	158.651
67	0.25119	6916.69	8761.76	11162.8	51.7118	164.081
68	0.19953	7648.7	10278.5	12812.1	53.3455	170.421
69	0.15849	8487.08	12109.3	14787.4	54.9744	177.796
70	0.12589	9529.43	14343.7	17220.7	56.4014	186.506
71	0.1	10706.4	16778.2	19903.1	57.4576	196.766