Folder: Streamlit_cement_impedance/data/20200504 (part 7)

File: Z_p46_3.txt
Index	Frequency (Hz)	Z' (Ω)	-Z'' (Ω)	Z (Ω)	-Phase (°)	Time (s)
1	1000000	1871.44	821.107	2043.65	23.6898	564.692
2	794330	1947.97	734.486	2081.84	20.6591	566.898
3	630960	2055.14	663.497	2159.59	17.8926	569.094
4	501190	2161.05	594.478	2241.33	15.3809	571.41
5	398110	2246.26	516.648	2304.91	12.953	573.561
6	316230	2326.55	458.799	2371.36	11.1557	575.747
7	251190	2350.24	374.205	2379.84	9.04671	577.813
8	199530	2414.44	332.968	2437.29	7.85196	580.034
9	158490	2464.83	293.113	2482.2	6.78165	582.49
10	125890	2502.7	256.922	2515.85	5.86133	586.322
11	100000	2533.11	224.337	2543.02	5.06103	588.498
12	79433	2556.62	195.518	2564.09	4.37319	590.694
13	63096	2576.6	171.905	2582.33	3.817	592.995
14	50119	2594.88	151.411	2599.3	3.33941	595.071
15	39811	2608.4	134.072	2611.84	2.94241	597.142
16	31623	2621.84	119.401	2624.56	2.6075	599.529
17	25119	2631.66	108.418	2633.89	2.35912	601.625
18	19953	2641.56	99.4774	2643.43	2.15666	603.821
19	15849	2652.59	92.4042	2654.2	1.99512	605.902
20	12589	2661.68	86.9854	2663.1	1.8718	607.928
21	10000	2670.75	83.0834	2672.05	1.78182	610.179
22	7943.3	2680.3	80.2338	2681.5	1.71462	612.275
23	6309.6	2690.71	78.5395	2691.86	1.67194	614.351
24	5011.9	2699.54	77.2575	2700.64	1.63929	616.477
25	3981.1	2709.8	76.8896	2710.9	1.62531	618.538
26	3162.3	2719	77.1002	2720.09	1.62425	620.684
27	2511.9	2728.52	77.8451	2729.63	1.63422	623.245
28	1995.3	2738.99	78.9434	2740.13	1.65093	625.466
29	1584.9	2750.73	80.6271	2751.91	1.67893	627.452
30	1258.9	2761.56	82.7189	2762.8	1.71571	629.503
31	1000	2772.67	85.452	2773.99	1.76526	631.614
32	794.33	2782.98	88.581	2784.39	1.82309	633.735
33	630.96	2794.86	92.5623	2796.39	1.89687	635.801
34	501.19	2807.42	97.3515	2809.11	1.98602	637.912
35	398.11	2819.77	102.886	2821.65	2.08965	639.988
36	316.23	2832.55	109.494	2834.67	2.21369	642.069
37	251.19	2847.67	117.237	2850.09	2.35751	644.25
38	199.53	2862.01	125.929	2864.78	2.51941	646.366
39	158.49	2878.48	136.018	2881.69	2.7054	648.647
40	125.89	2895.44	147.042	2899.18	2.90721	650.868
41	100	2914.94	159.775	2919.31	3.13739	652.869
42	79.433	2933.79	173.805	2938.93	3.39039	654.971
43	63.096	2958.01	189.502	2964.07	3.66558	657.162
44	50.119	2984.05	206.818	2991.2	3.96472	659.228
45	39.811	3010.39	225.204	3018.8	4.27827	669.044
46	31.623	3040.02	245.85	3049.95	4.62352	671.395
47	25.119	3073.79	267.783	3085.44	4.97894	673.701
48	19.953	3108.75	293.109	3122.54	5.38622	676.322
49	15.849	3147.7	319.85	3163.91	5.80213	678.938
50	12.589	3186.99	349.138	3206.05	6.25189	682.004
51	10	3230.17	381.694	3252.65	6.73911	685.015
52	7.9433	3278.23	418.709	3304.86	7.27865	688.071
53	6.3096	3328	460.695	3359.74	7.88137	691.182
54	5.0119	3378.51	508.719	3416.6	8.56296	694.338
55	3.9811	3434.19	564.695	3480.31	9.33777	697.514
56	3.1623	3493.34	631.758	3550.01	10.2509	700.74
57	2.5119	3555.09	710.366	3625.36	11.2998	704.226
58	1.9953	3621.81	804.308	3710.04	12.5207	707.718
59	1.5849	3699.66	916.568	3811.5	13.9145	711.219
60	1.2589	3775.5	1048.59	3918.41	15.5218	715.045
61	1	3860.74	1214.35	4047.21	17.4604	719.541
62	0.79433	3968.38	1404.17	4209.48	19.4858	723.752
63	0.63096	4069.48	1642.89	4388.59	21.9844	727.938
64	0.50119	4194.54	1917.92	4612.22	24.5719	732.434
65	0.39811	4323.66	2260.9	4879.1	27.6057	737.385
66	0.31623	4496.48	2701.66	5245.7	30.9991	743.011
67	0.25119	4692.49	3195.96	5677.46	34.258	749.157
68	0.19953	4869.77	3815.59	6186.55	38.0796	756.083
69	0.15849	5118.02	4521.99	6829.54	41.462	764.06
70	0.12589	5397.77	5422.47	7651.09	45.1308	773.256
71	0.1	5787.15	6542.56	8734.77	48.506	784.152

File: Z_p47_1.txt
Index	Frequency (Hz)	Z' (Ω)	-Z'' (Ω)	Z (Ω)	-Phase (°)	Time (s)
1	1000000	1304.37	521.692	1404.83	21.7993	85.6224
2	794330	1354.11	473.446	1434.49	19.2715	87.0324
3	630960	1421.17	429.022	1484.52	16.798	88.4224
4	501190	1485.7	386.068	1535.04	14.5665	89.9074
5	398110	1532.37	334.611	1568.47	12.3179	91.2925
6	316230	1585.46	296.303	1612.91	10.5858	92.6875
7	251190	1626.42	259.237	1646.95	9.05625	93.9425
8	199530	1658.91	225.599	1674.18	7.74429	95.2925
9	158490	1673.23	188.31	1683.8	6.42121	97.5576
10	125890	1698.58	164.372	1706.51	5.52734	98.7326
11	100000	1717.24	143.482	1723.23	4.77618	100.093
12	79433	1733.03	125.381	1737.56	4.13804	101.383
13	63096	1746.22	109.872	1749.68	3.60029	102.768
14	50119	1756.59	96.5908	1759.24	3.1474	104.158
15	39811	1765.61	85.4789	1767.68	2.7717	105.438
16	31623	1773.96	76.2569	1775.6	2.46145	106.688
17	25119	1780.99	69.1768	1782.33	2.22435	107.963
18	19953	1787.84	63.6056	1788.98	2.03753	109.248
19	15849	1793.79	59.1556	1794.76	1.88882	110.533
20	12589	1799.72	55.8163	1800.58	1.7764	111.788
21	10000	1804.72	53.2427	1805.5	1.68985	113.053
22	7943.3	1812.22	51.6725	1812.96	1.63325	114.348
23	6309.6	1818.07	50.5578	1818.78	1.59289	115.638
24	5011.9	1823.7	49.9037	1824.38	1.56745	116.913
25	3981.1	1830.26	49.6883	1830.94	1.55509	118.138
26	3162.3	1836.62	49.8312	1837.3	1.55417	119.378
27	2511.9	1842.84	50.1614	1843.52	1.55919	120.663
28	1995.3	1849.96	50.9841	1850.66	1.57865	121.968
29	1584.9	1856.86	51.8446	1857.58	1.59932	123.198
30	1258.9	1863.76	53.1025	1864.52	1.63204	124.473
31	1000	1871.93	54.5656	1872.73	1.66966	125.738
32	794.33	1878.49	56.2525	1879.33	1.71524	127.108
33	630.96	1885.98	58.2349	1886.88	1.76861	128.383
34	501.19	1894.94	60.5884	1895.91	1.83134	129.688
35	398.11	1902.59	63.3489	1903.65	1.90702	130.953
36	316.23	1911.77	66.4808	1912.92	1.99163	132.228
37	251.19	1921.11	70.0995	1922.39	2.08974	133.518
38	199.53	1929.45	74.1871	1930.87	2.20193	134.798
39	158.49	1939.56	78.6243	1941.15	2.32134	136.123
40	125.89	1949.4	83.4541	1951.19	2.45134	137.488
41	100	1961.14	89.039	1963.16	2.59954	138.828
42	79.433	1972.3	95.0367	1974.59	2.75871	140.198
43	63.096	1985.23	101.629	1987.83	2.93056	141.618
44	50.119	1999.87	109.372	2002.86	3.13036	151.509
45	39.811	2014.01	117.011	2017.4	3.32506	160.494
46	31.623	2030.05	125.59	2033.93	3.54012	162.094
47	25.119	2046.42	135.627	2050.91	3.79175	163.644
48	19.953	2064.34	147.58	2069.61	4.08913	165.514
49	15.849	2082.43	160.311	2088.59	4.40209	167.449
50	12.589	2100.84	175.227	2108.13	4.76789	169.474
51	10	2121.34	191.895	2130	5.16887	171.704
52	7.9433	2140.9	211.469	2151.32	5.64112	174.939
53	6.3096	2163.6	235.08	2176.34	6.20099	177.239
54	5.0119	2187.48	262.592	2203.18	6.84524	179.559
55	3.9811	2210.91	295.101	2230.52	7.60262	181.954
56	3.1623	2237.12	334.81	2262.03	8.51179	184.374
57	2.5119	2266.29	383.096	2298.44	9.59461	186.919
58	1.9953	2293.85	442.468	2336.13	10.9179	189.589
59	1.5849	2328.56	512.949	2384.38	12.4231	192.319
60	1.2589	2360.97	600.361	2436.11	14.2671	195.184
61	1	2398.44	706.409	2500.3	16.4112	198.374
62	0.79433	2445.09	838.048	2584.72	18.919	201.57
63	0.63096	2487.27	988.752	2676.59	21.6791	205.04
64	0.50119	2538.66	1192.25	2804.68	25.1564	208.785
65	0.39811	2590.87	1436.28	2962.35	29.0023	213.005
66	0.31623	2670.31	1733.88	3183.85	32.9964	217.75
67	0.25119	2728.04	2098.95	3442.07	37.5746	223.175
68	0.19953	2814.55	2541.85	3792.45	42.0854	229.335
69	0.15849	2917.15	3107.83	4262.43	46.8128	236.59
70	0.12589	3067.14	3794.99	4879.47	51.0546	245.145
71	0.1	3178.71	4596.44	5588.51	55.3338	255.321

File: Z_p47_2.txt
Index	Frequency (Hz)	Z' (Ω)	-Z'' (Ω)	Z (Ω)	-Phase (°)	Time (s)
1	1000000	1304.26	522.614	1405.07	21.8359	398.659
2	794330	1355.3	472.661	1435.36	19.2261	400.054
3	630960	1422.24	429.342	1485.63	16.7978	401.444
4	501190	1487.77	387.336	1537.36	14.5928	402.914
5	398110	1534.43	335.276	1570.63	12.3255	404.304
6	316230	1587.19	296.862	1614.72	10.594	405.619
7	251190	1628.03	259.669	1648.61	9.06226	406.914
8	199530	1660.28	226.05	1675.6	7.75322	408.299
9	158490	1674.49	188.978	1685.12	6.43902	409.674
10	125890	1698.68	164.777	1706.65	5.54052	410.914
11	100000	1718.8	143.705	1724.8	4.77928	412.279
12	79433	1735.24	125.626	1739.78	4.14081	413.559
13	63096	1747.74	109.954	1751.19	3.59987	414.949
14	50119	1757.98	96.7057	1760.64	3.14864	416.349
15	39811	1768.1	85.6254	1770.18	2.77254	417.709
16	31623	1775.28	76.4056	1776.92	2.46442	418.984
17	25119	1782.59	69.3473	1783.94	2.22782	420.249
18	19953	1789.32	63.5748	1790.44	2.03488	421.524
19	15849	1794.92	59.1281	1795.89	1.88675	423.009
20	12589	1801.36	55.7816	1802.22	1.77368	424.394
21	10000	1807.27	53.417	1808.06	1.69298	425.669
22	7943.3	1813.3	51.6238	1814.03	1.63075	426.93
23	6309.6	1819.47	50.4719	1820.17	1.58897	428.24
24	5011.9	1826.66	49.9207	1827.34	1.56544	429.59
25	3981.1	1832.96	49.5804	1833.63	1.54944	430.84
26	3162.3	1839	49.7414	1839.67	1.54936	432.095
27	2511.9	1845.77	50.1998	1846.46	1.5579	433.405
28	1995.3	1852.43	50.814	1853.13	1.57128	434.725
29	1584.9	1859.49	51.7655	1860.21	1.59462	435.945
30	1258.9	1865.36	52.8013	1866.11	1.62139	437.19
31	1000	1873	54.2293	1873.78	1.65844	438.48
32	794.33	1881.11	55.9584	1881.94	1.70391	439.915
33	630.96	1888.19	57.9622	1889.08	1.75827	441.175
34	501.19	1896.08	60.2402	1897.04	1.81972	442.445
35	398.11	1904.29	62.9236	1905.32	1.89255	443.585
36	316.23	1913.23	65.9309	1914.36	1.97366	444.885
37	251.19	1922.16	69.5374	1923.42	2.07187	446.21
38	199.53	1931.65	73.3794	1933.04	2.17551	447.585
39	158.49	1941.43	77.8893	1943	2.29744	448.885
40	125.89	1951.46	82.5174	1953.2	2.42131	450.225
41	100	1961.94	87.9985	1963.91	2.56816	451.565
42	79.433	1974.02	93.9278	1976.25	2.72419	452.955
43	63.096	1986.62	100.438	1989.16	2.89425	454.66
44	50.119	2000.24	107.857	2003.15	3.08651	464.72
45	39.811	2015.83	115.658	2019.15	3.28373	473.795
46	31.623	2031.62	124.789	2035.45	3.5149	475.385
47	25.119	2047.88	134.617	2052.3	3.76092	477.02
48	19.953	2063.17	145.866	2068.32	4.04409	478.87
49	15.849	2081.93	158.362	2087.95	4.34982	480.796
50	12.589	2101.79	173.517	2108.94	4.71947	482.846
51	10	2120.18	190.106	2128.68	5.12374	485.086
52	7.9433	2142.01	209.337	2152.22	5.58174	487.396
53	6.3096	2162.75	232.626	2175.22	6.13917	489.771
54	5.0119	2185.98	259.979	2201.38	6.78236	492.181
55	3.9811	2209.93	293.247	2229.3	7.55872	494.576
56	3.1623	2235.03	332.077	2259.56	8.45108	497.066
57	2.5119	2264.21	380.74	2296	9.54532	499.626
58	1.9953	2291.89	439.796	2333.7	10.8626	502.246
59	1.5849	2326.36	511.052	2381.83	12.3899	505.031
60	1.2589	2359.82	595.327	2433.75	14.159	507.866
61	1	2395	704.623	2496.5	16.3942	511.096
62	0.79433	2440.98	828.269	2577.67	18.743	514.341
63	0.63096	2487.45	989.121	2676.89	21.685	517.846
64	0.50119	2534.04	1176.55	2793.86	24.9054	521.611
65	0.39811	2596.62	1420.43	2959.74	28.6801	525.861
66	0.31623	2649.9	1715.03	3156.47	32.9112	530.586
67	0.25119	2747.97	2084.6	3449.19	37.1839	535.947
68	0.19953	2837.76	2542.86	3810.38	41.8629	542.217
69	0.15849	2947.3	3082.9	4265.08	46.2882	549.487
70	0.12589	3035.57	3742.25	4818.62	50.9524	558.012
71	0.1	3185.48	4632.19	5621.78	55.4844	568.117

File: Z_p47_3.txt
Index	Frequency (Hz)	Z' (Ω)	-Z'' (Ω)	Z (Ω)	-Phase (°)	Time (s)
1	1000000	1306.94	523.6	1407.93	21.8325	688.644
2	794330	1357.17	475.268	1437.98	19.2998	690.694
3	630960	1425.19	431.311	1489.02	16.8376	692.809
4	501190	1490.36	387.879	1540.01	14.5881	695.019
5	398110	1537.52	335.89	1573.78	12.3234	697.099
6	316230	1589.88	297.646	1617.51	10.6037	699.184
7	251190	1630.94	260.569	1651.62	9.07722	701.239
8	199530	1663.2	226.776	1678.59	7.76437	703.329
9	158490	1678.35	189.323	1689	6.43593	705.414
10	125890	1703.13	165.422	1711.14	5.54762	707.445
11	100000	1722.49	144.181	1728.51	4.78479	709.54
12	79433	1739.03	126.068	1743.59	4.1463	711.52
13	63096	1751.21	110.312	1754.68	3.60441	713.655
14	50119	1762.35	97.0901	1765.02	3.15331	715.73
15	39811	1771.08	85.8733	1773.16	2.77589	717.815
16	31623	1779.12	76.5674	1780.77	2.4643	719.85
17	25119	1785.92	69.4306	1787.27	2.22635	721.85
18	19953	1791.91	63.7748	1793.04	2.03832	723.845
19	15849	1799.36	59.3233	1800.34	1.88831	725.93
20	12589	1805.48	55.8971	1806.34	1.7733	727.965
21	10000	1811.42	53.4353	1812.21	1.68969	729.94
22	7943.3	1817.13	51.7108	1817.86	1.63005	731.94
23	6309.6	1823.47	50.6143	1824.17	1.58996	733.995
24	5011.9	1829.84	49.8921	1830.52	1.56183	736.055
25	3981.1	1835.35	49.6644	1836.02	1.55004	738.065
26	3162.3	1842.2	49.7102	1842.87	1.5457	740.08
27	2511.9	1848.88	50.1276	1849.56	1.55305	742.085
28	1995.3	1856.31	50.8212	1857.01	1.56822	744.115
29	1584.9	1862.68	51.6911	1863.39	1.58961	746.075
30	1258.9	1869.19	52.9572	1869.94	1.62285	748.105
31	1000	1877.36	54.1892	1878.15	1.65335	750.125
32	794.33	1884.2	55.7721	1885.02	1.69546	752.235
33	630.96	1892.43	57.7101	1893.31	1.7467	754.3
34	501.19	1900.69	60.0782	1901.64	1.81043	756.32
35	398.11	1908.29	62.6645	1909.32	1.8808	758.28
36	316.23	1917.15	65.806	1918.28	1.9659	760.405
37	251.19	1926.68	69.3547	1927.92	2.06159	762.426
38	199.53	1935.82	73.1636	1937.21	2.16444	764.456
39	158.49	1945.18	77.4951	1946.73	2.28143	766.556
40	125.89	1954.65	82.3184	1956.38	2.41154	768.711
41	100	1965.72	87.5727	1967.67	2.55083	770.771
42	79.433	1977.37	93.4268	1979.57	2.7051	772.936
43	63.096	1990.03	99.9907	1992.54	2.87646	775.161
44	50.119	2003.85	106.715	2006.69	3.0484	786.421
45	39.811	2018.7	115.066	2021.98	3.26233	796.136
46	31.623	2033.15	123.871	2036.92	3.48648	798.491
47	25.119	2051.41	133.581	2055.75	3.72565	800.801
48	19.953	2069.18	145.472	2074.29	4.02151	803.396
49	15.849	2085.28	158.305	2091.28	4.34131	806.046
50	12.589	2103.39	172.102	2110.42	4.67759	808.781
51	10	2124.36	189.171	2132.77	5.08867	811.791
52	7.9433	2144.93	209.039	2155.09	5.56633	814.732
53	6.3096	2167.34	231.641	2179.68	6.10051	817.807
54	5.0119	2189.04	259.417	2204.35	6.75846	820.832
55	3.9811	2214.14	291.51	2233.25	7.50033	823.992
56	3.1623	2239.82	331.41	2264.2	8.41659	827.112
57	2.5119	2267.91	379.389	2299.42	9.49685	830.352
58	1.9953	2295.7	437.588	2337.04	10.7918	833.677
59	1.5849	2327.71	508.909	2382.69	12.3326	837.312
60	1.2589	2361.64	595.754	2435.63	14.1582	840.972
61	1	2395.74	701.826	2496.42	16.3278	844.902
62	0.79433	2444.72	831.233	2582.17	18.7787	848.782
63	0.63096	2489.4	980.451	2675.52	21.497	853.027
64	0.50119	2532.64	1182.72	2795.19	25.0322	857.532
65	0.39811	2596.96	1425.33	2962.39	28.76	862.412
66	0.31623	2648.96	1719.27	3157.98	32.9849	867.932
67	0.25119	2734.34	2093.32	3443.64	37.4364	874.038
68	0.19953	2827.93	2511.56	3782.21	41.6091	881.073
69	0.15849	2946.99	3070.7	4256.05	46.1777	889.048
70	0.12589	3062.44	3737.56	4831.96	50.6699	898.243
71	0.1	3161.83	4573.28	5559.86	55.3411	909.133

File: Z_p48_1.txt
Index	Frequency (Hz)	Z' (Ω)	-Z'' (Ω)	Z (Ω)	-Phase (°)	Time (s)
1	1000000	1204.19	532.92	1316.85	23.872	39.5125
2	794330	1262.97	493.108	1355.82	21.3274	40.8925
3	630960	1336.27	456.228	1412.01	18.8509	42.3776
4	501190	1408.27	417.279	1468.79	16.5049	43.9776
5	398110	1463.11	369.554	1509.06	14.1753	46.3776
6	316230	1523.15	332.764	1559.07	12.3238	47.6977
7	251190	1571.04	296.11	1598.71	10.6739	49.0127
8	199530	1610.84	261.934	1631.99	9.2359	50.4127
9	158490	1642.59	230.856	1658.73	8.00019	53.4278
10	125890	1669.83	202.974	1682.12	6.9305	54.5878
11	100000	1686.98	175.284	1696.06	5.93198	56.0128
12	79433	1706.79	155.422	1713.85	5.20304	57.3128
13	63096	1723.57	137.955	1729.08	4.57621	58.6929
14	50119	1738.95	123.302	1743.32	4.05584	60.0629
15	39811	1751.16	110.711	1754.65	3.61751	61.4329
16	31623	1760.78	100.188	1763.63	3.25661	63.6279
17	25119	1771.86	92.328	1774.26	2.98287	64.828
18	19953	1781.12	85.8587	1783.19	2.7598	67.093
19	15849	1790.16	81.0585	1792	2.59258	68.298
20	12589	1798.02	77.5547	1799.7	2.46983	69.7131
21	10000	1807.31	75.3865	1808.88	2.38854	70.9981
22	7943.3	1814.9	74.2092	1816.42	2.34145	73.1331
23	6309.6	1823.79	73.97	1825.29	2.32255	74.3431
24	5011.9	1832.28	74.5847	1833.8	2.33099	75.6682
25	3981.1	1841.79	76.2248	1843.36	2.36991	76.9432
26	3162.3	1851.13	78.5048	1852.79	2.42841	78.2332
27	2511.9	1860.5	81.7181	1862.29	2.51497	79.5282
28	1995.3	1870.38	85.6111	1872.34	2.62071	80.8033
29	1584.9	1881.01	90.5697	1883.19	2.75663	82.0683
30	1258.9	1892.16	96.435	1894.62	2.91758	83.3333
31	1000	1904.14	103.441	1906.95	3.10948	84.6583
32	794.33	1917.28	111.664	1920.53	3.33319	86.0734
33	630.96	1930.36	121.149	1934.16	3.59116	87.3184
34	501.19	1946.44	132.266	1950.93	3.88744	88.6034
35	398.11	1962.76	145.036	1968.11	4.22613	89.9284
36	316.23	1980.28	159.591	1986.7	4.60751	91.2435
37	251.19	2000.64	176.128	2008.38	5.03111	92.5535
38	199.53	2022.81	194.763	2032.16	5.49969	93.8285
39	158.49	2047.41	215.619	2058.73	6.01183	95.2235
40	125.89	2074.26	238.571	2087.94	6.56103	96.5886
41	100	2103.82	264.285	2120.35	7.16008	97.9086
42	79.433	2137.46	292.714	2157.41	7.79786	99.2786
43	63.096	2174.96	324.37	2199.01	8.48249	100.759
44	50.119	2215.55	359.524	2244.53	9.21723	110.704
45	39.811	2261.92	398.962	2296.83	10.0031	119.859
46	31.623	2313.09	442.306	2355	10.8253	121.544
47	25.119	2370.76	491.107	2421.09	11.7034	123.284
48	19.953	2432.66	546.281	2493.24	12.6565	125.184
49	15.849	2500.57	606.492	2573.07	13.6333	127.169
50	12.589	2577.54	673.7	2664.13	14.6479	129.134
51	10	2662.9	748.194	2766.01	15.6937	131.414
52	7.9433	2757.15	830.692	2879.57	16.7668	133.719
53	6.3096	2859.73	923.213	3005.06	17.8917	136.204
54	5.0119	2974.88	1026.19	3146.9	19.032	138.614
55	3.9811	3100.72	1140.76	3303.9	20.1986	140.999
56	3.1623	3235.08	1267.87	3474.66	21.4009	145.639
57	2.5119	3385.89	1413.2	3668.98	22.6547	149.29
58	1.9953	3548.72	1577.82	3883.67	23.9708	151.785
59	1.5849	3726.8	1766.83	4124.41	25.3651	154.51
60	1.2589	3920.85	1982.62	4393.61	26.824	157.415
61	1	4130.86	2236.15	4697.28	28.4279	162.405
62	0.79433	4365.76	2532.48	5047.11	30.1171	165.5
63	0.63096	4615.99	2867.01	5433.88	31.8446	169.1
64	0.50119	4890.06	3280.44	5888.46	33.8553	172.885
65	0.39811	5193.46	3755.7	6409.15	35.8729	177.175
66	0.31623	5549.75	4348.41	7050.42	38.0799	181.945
67	0.25119	5939.2	4998.66	7762.77	40.0853	187.34
68	0.19953	6401.99	5790.42	8632.17	42.1284	193.575
69	0.15849	6896.97	6740.86	9644.04	44.3442	200.89
70	0.12589	7507.3	7925	10916.3	46.5504	209.406
71	0.1	8224.31	9169.46	12317.4	48.1103	219.641

File: Z_p48_2.txt
Index	Frequency (Hz)	Z' (Ω)	-Z'' (Ω)	Z (Ω)	-Phase (°)	Time (s)
1	1000000	1206.11	533.269	1318.74	23.852	332.028
2	794330	1264.67	494.061	1357.75	21.3388	333.338
3	630960	1339.29	456.285	1414.88	18.8136	334.728
4	501190	1409.91	419.42	1470.97	16.5667	336.203
5	398110	1464.98	370.5	1511.1	14.1928	337.668
6	316230	1525.72	333.798	1561.81	12.3407	338.983
7	251190	1574.17	297.172	1601.97	10.6905	340.238
8	199530	1614.3	263.181	1635.61	9.25957	341.618
9	158490	1645.17	230.892	1661.29	7.989	345.498
10	125890	1672.89	203.603	1685.24	6.93918	346.693
11	100000	1690.47	175.892	1699.59	5.94021	348.073
12	79433	1709.77	155.873	1716.87	5.20902	349.338
13	63096	1727.31	138.415	1732.85	4.58152	350.773
14	50119	1741.21	123.577	1745.59	4.05958	352.188
15	39811	1754.48	111.007	1757.99	3.62031	353.498
16	31623	1765.63	100.494	1768.48	3.2576	354.758
17	25119	1774.99	92.4411	1777.39	2.98126	356.058
18	19953	1783.9	86.1241	1785.98	2.76401	357.413
19	15849	1793.41	81.3359	1795.26	2.59673	358.688
20	12589	1802.18	77.8922	1803.86	2.47484	359.958
21	10000	1810.49	75.5427	1812.06	2.38928	361.268
22	7943.3	1819.5	74.4606	1821.03	2.34344	362.588
23	6309.6	1827.85	74.1867	1829.35	2.32418	363.923
24	5011.9	1835.85	74.808	1837.37	2.33342	365.218
25	3981.1	1845.25	76.4181	1846.83	2.37146	366.493
26	3162.3	1855.09	78.6806	1856.75	2.42866	367.783
27	2511.9	1865.14	81.8643	1866.94	2.5132	369.153
28	1995.3	1874.93	85.718	1876.88	2.61763	370.398
29	1584.9	1885.39	90.7203	1887.58	2.7548	371.683
30	1258.9	1896.04	96.6568	1898.5	2.91831	373.043
31	1000	1907.59	103.607	1910.4	3.10885	374.384
32	794.33	1921.15	111.897	1924.41	3.33341	375.819
33	630.96	1935.51	121.534	1939.32	3.593	377.124
34	501.19	1950.48	132.726	1954.99	3.89286	378.414
35	398.11	1967.39	145.51	1972.77	4.22996	379.689
36	316.23	1985.03	159.934	1991.46	4.60638	381.014
37	251.19	2004.78	176.659	2012.55	5.03583	382.369
38	199.53	2027.7	195.274	2037.08	5.50081	383.649
39	158.49	2050.97	215.964	2062.31	6.011	384.964
40	125.89	2078.78	239.127	2092.49	6.56203	386.454
41	100	2108.27	264.657	2124.81	7.15509	387.864
42	79.433	2141.52	293.192	2161.49	7.79581	389.304
43	63.096	2178.93	324.823	2203.01	8.47889	390.739
44	50.119	2220.94	360.313	2249.97	9.21508	392.164
45	39.811	2267.76	399.75	2302.73	9.99711	401.279
46	31.623	2319.19	443.534	2361.22	10.8268	402.979
47	25.119	2375.56	492.459	2426.07	11.7116	404.704
48	19.953	2439.05	547.835	2499.82	12.6591	406.674
49	15.849	2507.69	607.465	2580.22	13.6171	408.559
50	12.589	2582.58	675.548	2669.47	14.6589	410.534
51	10	2668.24	750.736	2771.84	15.7145	412.894
52	7.9433	2763.87	834.006	2886.96	16.7913	415.159
53	6.3096	2867.83	926.212	3013.69	17.8987	418.534
54	5.0119	2979.72	1028.2	3152.13	19.0378	420.784
55	3.9811	3105.52	1144.11	3309.57	20.2244	423.259
56	3.1623	3245.17	1274.16	3486.35	21.4367	425.759
57	2.5119	3395.97	1419.9	3680.86	22.6905	428.295
58	1.9953	3560.68	1586.13	3897.98	24.011	431.01
59	1.5849	3737.38	1772.93	4136.58	25.3787	436.555
60	1.2589	3931.1	1989.37	4405.81	26.8421	439.43
61	1	4140.75	2241.34	4708.44	28.4262	444.465
62	0.79433	4377.99	2536.25	5059.58	30.0845	447.56
63	0.63096	4637.32	2879.23	5458.45	31.8355	451.055
64	0.50119	4910.48	3278.15	5904.16	33.7264	454.895
65	0.39811	5229.36	3761.61	6441.73	35.7284	459.13
66	0.31623	5559.26	4335.85	7050.18	37.9518	463.89
67	0.25119	5991.12	5032.88	7824.54	40.0322	469.45
68	0.19953	6442.67	5851.26	8703.17	42.2459	475.695
69	0.15849	6977.06	6791.07	9736.43	44.2261	483.061
70	0.12589	7545.38	7861.85	10896.9	46.1767	491.646
71	0.1	8203.64	9299.26	12400.6	48.5819	501.841

File: Z_p48_3.txt
Index	Frequency (Hz)	Z' (Ω)	-Z'' (Ω)	Z (Ω)	-Phase (°)	Time (s)
1	1000000	1208.01	535.298	1321.3	23.8993	558.974
2	794330	1266.4	495.312	1359.82	21.3613	561.27
3	630960	1339.81	458.413	1416.07	18.8882	563.441
4	501190	1412.15	422.177	1473.91	16.6445	565.667
5	398110	1467.25	371.507	1513.55	14.2087	567.763
6	316230	1528.61	334.81	1564.85	12.3543	569.954
7	251190	1576.95	297.92	1604.85	10.6983	572.045
8	199530	1616.41	263.765	1637.79	9.26783	574.341
9	158490	1637.45	224.305	1652.74	7.80008	578.253
10	125890	1667.9	199.28	1679.76	6.81337	580.289
11	100000	1692.62	176.324	1701.77	5.94719	582.475
12	79433	1712.32	156.19	1719.42	5.21183	584.646
13	63096	1730.18	138.838	1735.74	4.58785	586.932
14	50119	1745.29	124.056	1749.7	4.06576	589.153
15	39811	1758.11	111.443	1761.64	3.62702	591.274
16	31623	1768.28	100.822	1771.15	3.2633	593.27
17	25119	1778.21	92.8908	1780.64	2.99031	595.301
18	19953	1787.93	86.3263	1790.02	2.76425	597.502
19	15849	1797.2	81.4468	1799.05	2.59479	599.754
20	12589	1805.49	77.9762	1807.17	2.47298	601.91
21	10000	1813.91	75.7449	1815.49	2.39116	603.996
22	7943.3	1822.87	74.6557	1824.39	2.34525	606.067
23	6309.6	1831.76	74.4155	1833.28	2.32636	608.258
24	5011.9	1840.02	75.1212	1841.55	2.33788	610.424
25	3981.1	1848.79	76.5704	1850.38	2.37163	612.515
26	3162.3	1858.4	78.8494	1860.07	2.42953	614.556
27	2511.9	1868.46	81.9953	1870.26	2.51274	616.722
28	1995.3	1878.03	85.9433	1880	2.62016	618.898
29	1584.9	1889.29	90.8287	1891.48	2.7524	621.034
30	1258.9	1900.93	96.8378	1903.39	2.91626	623.08
31	1000	1913.08	103.888	1915.9	3.10834	625.171
32	794.33	1925.51	112.055	1928.77	3.33056	627.497
33	630.96	1939.61	121.664	1943.42	3.58925	629.628
34	501.19	1954.06	132.693	1958.56	3.8848	631.709
35	398.11	1971.23	145.616	1976.6	4.2248	633.75
36	316.23	1989.08	160.162	1995.52	4.60356	635.846
37	251.19	2009.79	176.874	2017.56	5.02941	637.942
38	199.53	2031.65	195.363	2041.02	5.49265	640.083
39	158.49	2055.22	216.38	2066.58	6.01014	642.434
40	125.89	2083.89	239.816	2097.65	6.56475	644.58
41	100	2113.29	265.341	2129.89	7.1565	646.686
42	79.433	2147.29	294.004	2167.32	7.79638	648.897
43	63.096	2184.66	325.906	2208.83	8.48478	651.508
44	50.119	2226.3	361.074	2255.39	9.21233	663.041
45	39.811	2273.37	400.639	2308.4	9.99469	673.017
46	31.623	2324.04	444.648	2366.19	10.8313	675.243
47	25.119	2380.08	493.266	2430.65	11.7087	677.754
48	19.953	2444.97	548.583	2505.76	12.6461	680.26
49	15.849	2512.86	608.766	2585.55	13.6181	682.976
50	12.589	2588.63	676.895	2675.67	14.654	685.797
51	10	2675.05	752.24	2778.81	15.7063	688.948
52	7.9433	2767.44	835.018	2890.67	16.7901	691.924
53	6.3096	2872.76	927.844	3018.88	17.8994	694.94
54	5.0119	2986.65	1030.38	3159.39	19.0342	698.111
55	3.9811	3115.97	1146.95	3320.35	20.208	701.242
56	3.1623	3254.76	1277.13	3496.36	21.4245	704.423
57	2.5119	3399.89	1421.44	3685.07	22.689	711.342
58	1.9953	3562.35	1586.74	3899.75	24.0091	714.563
59	1.5849	3743.92	1776.38	4143.97	25.383	718.159
60	1.2589	3936.13	1992.84	4411.86	26.8529	721.76
61	1	4149.85	2246.64	4718.96	28.4302	725.681
62	0.79433	4387.4	2542.55	5070.88	30.0928	729.662
63	0.63096	4646.73	2885.56	5469.79	31.8397	733.833
64	0.50119	4913.18	3291.52	5913.83	33.8195	738.264
65	0.39811	5229.69	3785.88	6456.2	35.9016	743.125
66	0.31623	5571.09	4352.18	7069.55	37.9973	748.586
67	0.25119	5981.53	5058.57	7833.76	40.2212	754.662
68	0.19953	6450.48	5812.62	8683.05	42.0225	761.749
69	0.15849	6991.82	6773.15	9734.53	44.0899	769.615
70	0.12589	7584.19	7881.91	10938.2	46.1028	778.931
71	0.1	8220.58	9200.38	12337.9	48.2191	790.302