Folder: Streamlit_cement_impedance/data/20200826 (part 3)

File: Z_p40_1.txt
Index	Frequency (Hz)	Z' (Ω)	-Z'' (Ω)	Z (Ω)	-Phase (°)	Time (s)
1	1000000	2605.49	1893.71	3220.98	36.0103	42.1886
2	794330	2891.99	1768.48	3389.85	31.4462	45.7386
3	630960	3235.84	1693.26	3652.1	27.6222	49.2637
4	501190	3560.61	1591.68	3900.17	24.0858	52.1538
5	398110	3895.88	1451.97	4157.65	20.4401	62.0689
6	316230	4151.64	1325.81	4358.2	17.7106	64.924
7	251190	4288.69	1160.5	4442.93	15.1414	75.1642
8	199530	4483.82	1049.57	4605.02	13.1745	78.0492
9	158490	4644.9	935.458	4738.16	11.3868	86.3544
10	125890	4773.11	824.986	4843.88	9.80613	92.0745
11	100000	4875.57	722.245	4928.78	8.42625	101.965
12	79433	4960.75	630.434	5000.65	7.24258	116.525
13	63096	5028.96	548.378	5058.77	6.22317	133.87
14	50119	5080.46	475.835	5102.7	5.35069	139.43
15	39811	5129.87	416.315	5146.74	4.63968	160.681
16	31623	5166.11	363.748	5178.9	4.02758	186.631
17	25119	5197.82	323.622	5207.89	3.5627	190.001
18	19953	5229.2	287.677	5237.11	3.14887	193.806
19	15849	5254.68	257.563	5260.99	2.80616	196.931
20	12589	5281.74	233.743	5286.91	2.53397	199.961
21	10000	5302.85	216.47	5307.27	2.3376	216.087
22	7943.3	5326.05	200.044	5329.81	2.15099	219.822
23	6309.6	5349.11	188.226	5352.42	2.0153	223.457
24	5011.9	5371.28	178.539	5374.25	1.90379	227.587
25	3981.1	5390.16	170.899	5392.87	1.816	233.517
26	3162.3	5410.15	164.291	5412.64	1.73938	246.382
27	2511.9	5428.33	159.291	5430.67	1.68082	260.293
28	1995.3	5448.07	156.317	5450.32	1.64349	263.398
29	1584.9	5467.36	153.718	5469.52	1.61048	267.558
30	1258.9	5487.43	151.191	5489.51	1.57823	272.528
31	1000	5507.26	149.429	5509.29	1.55423	276.328
32	794.33	5526.84	148.899	5528.84	1.54324	279.703
33	630.96	5545.15	147.497	5547.11	1.52366	282.828
34	501.19	5569.26	147.129	5571.21	1.51329	286.768
35	398.11	5588.12	147.786	5590.08	1.51492	291.238
36	316.23	5608.16	149.533	5610.16	1.52734	296.208
37	251.19	5627.31	151.159	5629.34	1.53869	301.643
38	199.53	5648.92	155.735	5651.06	1.57919	330.359
39	158.49	5666.66	160.264	5668.93	1.62	335.599
40	125.89	5686.79	168.531	5689.29	1.6975	338.904
41	100	5706.34	177.864	5709.11	1.78531	342.389
42	79.433	5727.82	188.571	5730.93	1.8856	346.059
43	63.096	5751.19	202.552	5754.75	2.01708	349.559
44	50.119	5780.01	243.953	5785.16	2.41681	357.829
45	39.811	5797.34	239.305	5802.28	2.36374	369.855
46	31.623	5829.29	260.167	5835.09	2.55547	379.465
47	25.119	5862.64	287.22	5869.67	2.80477	384.16
48	19.953	5899.37	320.77	5908.08	3.11231	389.035
49	15.849	5938.3	352.036	5948.73	3.39265	396.705
50	12.589	5979.74	391.399	5992.53	3.74491	400.895
51	10	6031.28	432.281	6046.75	4.09957	404.69
52	7.9433	6084.09	476.009	6102.69	4.47361	408.965
53	6.3096	6144.4	530.011	6167.21	4.93009	413.325
54	5.0119	6200.71	585.157	6228.26	5.391	417.471
55	3.9811	6263.4	649.197	6296.95	5.91754	421.866
56	3.1623	6339.3	726.002	6380.73	6.53329	426.391
57	2.5119	6419.12	802.028	6469.03	7.12183	431.171
58	1.9953	6505.11	959.793	6575.53	8.39312	435.841
59	1.5849	6537.38	1089.94	6627.61	9.46556	440.521
60	1.2589	6649.02	1201.23	6756.66	10.2408	445.861
61	1	6761.22	1376.43	6899.91	11.5069	455.491
62	0.79433	6878.29	1605.63	7063.21	13.1395	459.806
63	0.63096	6996.73	1859.68	7239.66	14.8846	465.536
64	0.50119	7106.94	2189.37	7436.53	17.122	471.852
65	0.39811	7214.27	2580.71	7661.97	19.6833	478.832
66	0.31623	7359.01	3078.83	7977.11	22.7033	487.767
67	0.25119	7512.21	3701.15	8374.47	26.2287	500.432
68	0.19953	7776.21	4442.46	8955.72	29.7388	507.402
69	0.15849	7993.27	5407.64	9650.65	34.0793	515.412
70	0.12589	8286.01	6504.02	10533.8	38.1298	524.552
71	0.1	8499.62	7801.51	11537.2	42.5478	535.663

File: Z_p41_1.txt
Index	Frequency (Hz)	Z' (Ω)	-Z'' (Ω)	Z (Ω)	-Phase (°)	Time (s)
1	1000000	2563.79	1837.9	3154.5	35.6356	20.7412
2	794330	2857.86	1714.07	3332.47	30.9542	23.2662
3	630960	3192.09	1634.62	3586.28	27.1164	25.7263
4	501190	3514.17	1533.35	3834.13	23.5733	28.3713
5	398110	3824.73	1395.08	4071.22	20.0395	35.1064
6	316230	4063.94	1286.56	4262.72	17.5667	36.8915
7	251190	4197.33	1106.69	4340.77	14.7707	44.3166
8	199530	4383.86	997.959	4496.02	12.8245	47.0217
9	158490	4536.37	887.636	4622.39	11.0712	49.2967
10	125890	4656.11	780.993	4721.16	9.52186	54.6368
11	100000	4751.24	682.773	4800.05	8.17765	58.5569
12	79433	4833.06	595.003	4869.54	7.01844	60.7419
13	63096	4892.34	516.35	4919.51	6.02483	62.8019
14	50119	4946.44	450.421	4966.91	5.20297	64.682
15	39811	4987.49	391.506	5002.84	4.48838	67.307
16	31623	5027.3	341.583	5038.89	3.88702	69.9571
17	25119	5057.53	304.504	5066.69	3.44551	73.3471
18	19953	5084.72	270.269	5091.89	3.0426	75.8322
19	15849	5109.31	244.694	5115.16	2.7419	78.0722
20	12589	5132.6	222.346	5137.42	2.48052	80.4123
21	10000	5156.58	204.447	5160.63	2.27046	83.0523
22	7943.3	5178.33	190.736	5181.84	2.10946	85.8974
23	6309.6	5197.22	179.806	5200.32	1.98145	88.3224
24	5011.9	5219.03	170.576	5221.82	1.87196	90.5775
25	3981.1	5238.08	164.154	5240.65	1.79498	92.1125
26	3162.3	5256.37	158.588	5258.76	1.72812	94.5725
27	2511.9	5274.73	154.646	5277	1.67933	97.0376
28	1995.3	5295.83	151.986	5298.01	1.64389	99.7176
29	1584.9	5314.3	149.636	5316.4	1.61286	101.878
30	1258.9	5333.5	148.704	5335.58	1.59705	103.838
31	1000	5353.92	147.541	5355.96	1.57853	107.023
32	794.33	5372.36	147.404	5374.38	1.57166	109.178
33	630.96	5393.58	147.291	5395.59	1.56428	111.288
34	501.19	5414.87	148.045	5416.89	1.5661	113.568
35	398.11	5433.9	149.245	5435.95	1.57327	115.123
36	316.23	5455.66	150.73	5457.74	1.58258	116.688
37	251.19	5476.13	154.453	5478.3	1.61559	118.713
38	199.53	5496.14	159.198	5498.45	1.65913	120.493
39	158.49	5517.2	164.399	5519.65	1.70677	125.578
40	125.89	5541.02	172.233	5543.7	1.78037	130.838
41	100	5560.62	180.334	5563.54	1.85748	135.273
42	79.433	5580.67	192.169	5583.98	1.97219	137.968
43	63.096	5602.5	207.079	5606.32	2.1168	141.303
44	50.119	5635.09	225.721	5639.6	2.29384	144.078
45	39.811	5658.29	238.994	5663.33	2.41862	154.794
46	31.623	5691.02	262.133	5697.05	2.63723	158.529
47	25.119	5717.76	284.706	5724.84	2.85059	162.029
48	19.953	5755.52	313.687	5764.06	3.11965	166.654
49	15.849	5797.21	345.309	5807.48	3.40878	171.334
50	12.589	5841.19	378.088	5853.42	3.70347	174.724
51	10	5883.12	413.633	5897.64	4.02176	180.434
52	7.9433	5942.56	458.414	5960.22	4.41111	188.429
53	6.3096	5997.01	503.574	6018.11	4.79991	193.729
54	5.0119	6055.82	555.785	6081.27	5.24374	197.959
55	3.9811	6111.68	617.191	6142.76	5.7665	203.905
56	3.1623	6179.14	687.515	6217.27	6.34884	217.68
57	2.5119	6242.56	758.348	6288.45	6.92638	222.805
58	1.9953	6298.16	843.709	6354.42	7.62998	258.811
59	1.5849	6436.51	1008.04	6514.97	8.90091	287.396
60	1.2589	6502.59	1129.31	6599.93	9.85234	306.546
61	1	6580.9	1305.87	6709.22	11.2236	318.037
62	0.79433	6681	1517.1	6851.08	12.7936	321.242
63	0.63096	6788.71	1769.32	7015.49	14.6079	325.077
64	0.50119	6911.47	2078.47	7217.23	16.7375	334.142
65	0.39811	7031.37	2475.51	7454.42	19.3955	341.322
66	0.31623	7151.7	2929.03	7728.26	22.2719	349.412
67	0.25119	7377.49	3501.53	8166.27	25.3901	354.907
68	0.19953	7488.97	4171.1	8572.21	29.1163	364.398
69	0.15849	7726.48	5018.95	9213.48	33.0068	374.878
70	0.12589	8060.04	6065.88	10087.6	36.9646	384.788
71	0.1	8215.45	7367.94	11035.4	41.887	396.388

File: Z_p42_1.txt
Index	Frequency (Hz)	Z' (Ω)	-Z'' (Ω)	Z (Ω)	-Phase (°)	Time (s)
1	1000000	2806.34	2099.08	3504.53	36.7957	15.3491
2	794330	3145.89	1935.6	3693.67	31.6031	17.6341
3	630960	3520.13	1853.56	3978.32	27.7695	20.8342
4	501190	3881.49	1738.39	4252.99	24.126	24.6192
5	398110	4247.37	1601.11	4539.13	20.6546	30.6144
6	316230	4519.89	1469.48	4752.77	18.01	32.3744
7	251190	4684.15	1294.29	4859.68	15.4462	39.9445
8	199530	4904.42	1178.25	5043.97	13.5089	42.3596
9	158490	5081.57	1059.68	5190.89	11.7793	45.1396
10	125890	5229.05	944.036	5313.58	10.2338	47.1497
11	100000	5350.63	836.492	5415.62	8.88542	49.4097
12	79433	5451.56	739.433	5501.48	7.72428	52.3298
13	63096	5533.98	652.177	5572.28	6.72128	54.5948
14	50119	5605.2	577.105	5634.84	5.87839	58.8849
15	39811	5667.47	512.632	5690.6	5.16844	67.205
16	31623	5718.25	455.536	5736.36	4.55477	69.7401
17	25119	5765.24	408.583	5779.7	4.05377	71.9701
18	19953	5806.12	368.305	5817.79	3.62963	77.6852
19	15849	5844.42	334.908	5854.01	3.27969	80.9503
20	12589	5879.28	307.645	5887.32	2.99539	82.6803
21	10000	5911.95	285.953	5918.86	2.76916	84.7654
22	7943.3	5945.03	265.951	5950.98	2.56142	87.1404
23	6309.6	5973.53	251.864	5978.83	2.41436	89.3104
24	5011.9	6003	240.314	6007.81	2.29246	93.1055
25	3981.1	6031.25	231.309	6035.69	2.19632	97.4756
26	3162.3	6058.73	225.056	6062.91	2.12732	99.7306
27	2511.9	6085.68	219.466	6089.64	2.06534	101.871
28	1995.3	6111.12	216.85	6114.96	2.03226	103.876
29	1584.9	6138.71	214.106	6142.44	1.99755	105.596
30	1258.9	6169.34	213.291	6173.02	1.98008	107.651
31	1000	6194.98	213.47	6198.66	1.97355	110.231
32	794.33	6225.27	214.147	6228.95	1.97018	114.576
33	630.96	6252.16	216.131	6255.89	1.97987	119.986
34	501.19	6282.41	218.889	6286.22	1.99547	122.596
35	398.11	6311.92	223.591	6315.88	2.02877	125.696
36	316.23	6343.25	228.586	6347.37	2.06382	130.481
37	251.19	6372.65	236.233	6377.03	2.12297	133.966
38	199.53	6404.35	245.723	6409.06	2.19726	135.681
39	158.49	6439.27	257.064	6444.4	2.28611	137.876
40	125.89	6471.36	271.94	6477.07	2.40628	139.881
41	100	6507.85	288.005	6514.22	2.53397	141.946
42	79.433	6541.68	304.998	6548.79	2.66942	143.861
43	63.096	6581.44	329.621	6589.69	2.86717	146.111
44	50.119	6616.01	353.758	6625.46	3.06069	148.332
45	39.811	6666.7	383.14	6677.7	3.28921	158.027
46	31.623	6718.25	413.368	6730.96	3.52092	164.732
47	25.119	6767.93	453.687	6783.11	3.83508	168.982
48	19.953	6826.46	495.596	6844.42	4.15235	175.607
49	15.849	6881.69	546.026	6903.32	4.53662	179.392
50	12.589	6951.49	597.187	6977.1	4.91009	181.752
51	10	7021.94	660.842	7052.97	5.37633	184.707
52	7.9433	7097.14	728.207	7134.4	5.85838	190.817
53	6.3096	7182.51	808.273	7227.84	6.42069	196.002
54	5.0119	7273.21	910.153	7329.94	7.13278	200.893
55	3.9811	7363.7	1013.23	7433.09	7.83457	209.313
56	3.1623	7471.55	1139.87	7558	8.67427	212.928
57	2.5119	7574.28	1274.27	7680.72	9.54979	222.543
58	1.9953	7745.83	1495.5	7888.87	10.9277	227.913
59	1.5849	7897.96	1661.16	8070.76	11.8777	232.883
60	1.2589	7999.51	1947.81	8233.23	13.6847	236.588
61	1	8190.45	2214.47	8484.54	15.1295	243.713
62	0.79433	8392.9	2565.43	8776.23	16.9966	251.483
63	0.63096	8618	2966.85	9114.39	18.9966	257.569
64	0.50119	8864.66	3468.96	9519.24	21.3716	267.814
65	0.39811	9158.52	4065.07	10020.1	23.9343	276.714
66	0.31623	9491.13	4774.11	10624.2	26.7027	289.064
67	0.25119	9853.38	5643.43	11355.1	29.8015	302.069
68	0.19953	10344.3	6712.65	12331.5	32.9804	309.81
69	0.15849	10818	7858.46	13371.1	35.9955	318.575
70	0.12589	11464.3	9331.18	14781.8	39.1433	327.57
71	0.1	12367	11041.4	16578.8	41.759	338.135

File: Z_p43_1.txt
Index	Frequency (Hz)	Z' (Ω)	-Z'' (Ω)	Z (Ω)	-Phase (°)	Time (s)
1	1000000	2779.36	2197.19	3542.95	38.3277	45.9937
2	794330	3135.78	2060.47	3752.15	33.3082	48.2587
3	630960	3546.98	1991.84	4067.98	29.3168	50.4488
4	501190	3929.33	1897.37	4363.45	25.7746	52.8738
5	398110	4343.84	1783.53	4695.73	22.3225	60.904
6	316230	4635.4	1664.42	4925.17	19.7516	63.724
7	251190	4852.63	1478.54	5072.88	16.9454	71.8792
8	199530	5106.87	1361.54	5285.26	14.9284	75.6092
9	158490	5318.27	1237.29	5460.3	13.0968	79.0143
10	125890	5496.62	1113.63	5608.29	11.4532	82.7094
11	100000	5645.29	996.547	5732.57	10.0111	85.5044
12	79433	5771.7	888.783	5839.73	8.7542	87.2294
13	63096	5877	789.904	5929.85	7.65502	89.7295
14	50119	5971.01	704.935	6012.48	6.73314	93.5596
15	39811	6048.78	623.5	6080.83	5.88518	109.84
16	31623	6110.28	554.937	6135.42	5.18938	129.715
17	25119	6170.24	500.124	6190.48	4.63393	131.195
18	19953	6226.94	450.382	6243.21	4.13688	133.365
19	15849	6275.43	407.579	6288.65	3.71605	136.22
20	12589	6316.36	372.289	6327.32	3.37314	147.056
21	10000	6356.86	342.446	6366.08	3.08356	149.306
22	7943.3	6392.53	316.828	6400.37	2.83738	151.996
23	6309.6	6431.36	295.223	6438.13	2.62824	153.416
24	5011.9	6464.89	278.293	6470.88	2.46488	154.736
25	3981.1	6496.73	263.952	6502.09	2.32656	156.081
26	3162.3	6529.18	252.635	6534.07	2.21585	157.371
27	2511.9	6556.59	243.246	6561.1	2.12467	158.726
28	1995.3	6588.34	235.837	6592.56	2.05009	160.076
29	1584.9	6614.73	229.983	6618.73	1.99127	161.436
30	1258.9	6643.72	225.465	6647.55	1.94368	162.801
31	1000	6674.88	223.282	6678.62	1.91589	164.131
32	794.33	6703.02	220.805	6706.66	1.88671	165.611
33	630.96	6731.46	219.927	6735.05	1.87127	177.771
34	501.19	6760.29	219.816	6763.86	1.86236	186.686
35	398.11	6790.13	222.325	6793.77	1.87533	188.691
36	316.23	6818.43	225.392	6822.15	1.8933	191.806
37	251.19	6852.67	231.293	6856.57	1.93313	194.291
38	199.53	6879.48	236.785	6883.55	1.97129	213.762
39	158.49	6909.05	248.688	6913.52	2.06145	242.777
40	125.89	6938.31	259.924	6943.18	2.14542	258.473
41	100	6972.58	277.682	6978.11	2.28059	259.958
42	79.433	7007.32	296.995	7013.61	2.42694	261.398
43	63.096	7040.13	316.507	7047.24	2.57415	263.208
44	50.119	7081.62	329.997	7089.31	2.668	266.983
45	39.811	7123.17	373.044	7132.93	2.99787	279.348
46	31.623	7165.53	412.086	7177.37	3.29142	282.628
47	25.119	7218.74	450.587	7232.79	3.57172	285.708
48	19.953	7275.92	497.126	7292.88	3.90865	288.568
49	15.849	7337.2	553.531	7358.05	4.31432	305.183
50	12.589	7396.37	610.233	7421.5	4.71647	324.879
51	10	7466.91	676.669	7497.51	5.17813	351.769
52	7.9433	7545.96	757.063	7583.84	5.72914	363.24
53	6.3096	7630.32	844.781	7676.94	6.31771	372.925
54	5.0119	7712.75	948.42	7770.84	7.01035	413.88
55	3.9811	7810.17	1071.45	7883.32	7.81144	420.426
56	3.1623	7918.78	1210.92	8010.83	8.6942	458.781
57	2.5119	8038.76	1376.33	8155.73	9.71552	484.302
58	1.9953	8157.01	1543.4	8301.74	10.7144	498.762
59	1.5849	8335.11	1751.69	8517.18	11.8684	510.572
60	1.2589	8443.86	2103.05	8701.81	13.9857	516.207
61	1	8598.86	2461.79	8944.31	15.976	523.298
62	0.79433	8780.85	2888.44	9243.72	18.2085	527.613
63	0.63096	8977.73	3397.72	9599.17	20.7297	533.243
64	0.50119	9205.62	4010.98	10041.5	23.5432	538.173
65	0.39811	9429.02	4793.17	10577.4	26.9461	543.923
66	0.31623	9722.46	5727.64	11284.2	30.5029	550.168
67	0.25119	10063.9	6892.23	12197.7	34.4053	556.248
68	0.19953	10424.1	8319.95	13337.3	38.5949	572.998
69	0.15849	10891.6	9990.08	14779.3	42.528	585.774
70	0.12589	11415.2	12100.8	16635.4	46.6701	597.274
71	0.1	12211.4	14571.8	19012	50.0364	613.769

File: Z_p44_1.txt
Index	Frequency (Hz)	Z' (Ω)	-Z'' (Ω)	Z (Ω)	-Phase (°)	Time (s)
1	1000000	2822.49	2199.38	3578.22	37.9269	19.6701
2	794330	3173.57	2052.64	3779.54	32.8945	23.4352
3	630960	3593.57	1965.55	4095.99	28.677	26.1253
4	501190	3989.88	1854.62	4399.85	24.9305	39.3305
5	398110	4371.2	1725.99	4699.62	21.5468	65.476
6	316230	4675.06	1571.54	4932.13	18.5803	70.1011
7	251190	4853.56	1405.37	5052.94	16.1486	82.8013
8	199530	5091.34	1281.84	5250.22	14.1316	84.9014
9	158490	5290.25	1154.34	5414.73	12.3091	90.6865
10	125890	5451.08	1028.47	5547.26	10.6846	96.8166
11	100000	5583.74	911.291	5657.61	9.26921	100.047
12	79433	5695.68	803.961	5752.14	8.03437	107.857
13	63096	5786.08	708.022	5829.24	6.9764	110.807
14	50119	5865.71	625.458	5898.96	6.08643	114.082
15	39811	5928.55	551.086	5954.11	5.31064	116.767
16	31623	5982.69	488.526	6002.6	4.66822	118.957
17	25119	6034.17	436.644	6049.95	4.13881	121.952
18	19953	6080.35	393.021	6093.04	3.69833	126.047
19	15849	6118.04	354.823	6128.32	3.31922	130.662
20	12589	6155.32	323.337	6163.8	3.00697	133.097
21	10000	6188.77	299.378	6196	2.76949	136.312
22	7943.3	6222.42	277.57	6228.61	2.55416	139.312
23	6309.6	6255.63	260.885	6261.07	2.38808	141.852
24	5011.9	6283.03	247.018	6287.88	2.25143	144.742
25	3981.1	6312.44	235.737	6316.84	2.13871	147.003
26	3162.3	6341.29	226.504	6345.33	2.04567	149.743
27	2511.9	6369.3	219.239	6373.07	1.97141	151.893
28	1995.3	6394.68	213.665	6398.24	1.91371	155.878
29	1584.9	6419.62	208.823	6423.02	1.86311	159.503
30	1258.9	6450.17	205.551	6453.44	1.82526	164.698
31	1000	6476.73	203.018	6479.91	1.79539	167.918
32	794.33	6500.71	201.815	6503.84	1.77819	175.903
33	630.96	6526.22	199.814	6529.28	1.75368	180.613
34	501.19	6554.97	200.301	6558.03	1.75025	182.528
35	398.11	6581.33	200.718	6584.39	1.74687	184.688
36	316.23	6613.18	203.522	6616.31	1.76274	188.268
37	251.19	6641.33	206.472	6644.54	1.7807	195.018
38	199.53	6665.75	211.304	6669.1	1.81567	200.658
39	158.49	6693.76	218.811	6697.33	1.87227	203.059
40	125.89	6720.88	227.278	6724.72	1.93682	205.179
41	100	6751.19	241.773	6755.52	2.051	210.664
42	79.433	6781.7	254.03	6786.46	2.14519	215.349
43	63.096	6811.74	270.65	6817.11	2.27533	221.054
44	50.119	6868.58	281.417	6874.34	2.34619	223.049
45	39.811	6882.31	314.828	6889.51	2.61914	235.959
46	31.623	6920.74	342.033	6929.19	2.82934	239.759
47	25.119	6963.28	371.526	6973.19	3.05412	245.454
48	19.953	7011.58	408.81	7023.49	3.33685	255.095
49	15.849	7056.65	447.171	7070.8	3.62592	262.285
50	12.589	7110.51	496.369	7127.81	3.99322	265.63
51	10	7171.81	549.227	7192.81	4.37924	269.615
52	7.9433	7238.73	603.372	7263.84	4.76477	275.295
53	6.3096	7306.38	675.693	7337.55	5.28368	280.96
54	5.0119	7377.96	751.945	7416.18	5.81936	285.62
55	3.9811	7466.22	838.18	7513.12	6.40537	290.88
56	3.1623	7561.32	939.214	7619.43	7.08061	295.33
57	2.5119	7662.26	1064.66	7735.87	7.91054	298.47
58	1.9953	7751.77	1151.97	7836.9	8.45274	303.045
59	1.5849	7945.41	1331.61	8056.22	9.51404	308.5
60	1.2589	8019.79	1548.11	8167.84	10.9257	313.111
61	1	8178.8	1804.07	8375.41	12.439	324.676
62	0.79433	8366.01	2068.13	8617.84	13.8855	330.096
63	0.63096	8561.66	2397.94	8891.12	15.6464	333.691
64	0.50119	8784.01	2764.09	9208.64	17.4674	338.266
65	0.39811	9028	3207.71	9580.92	19.5605	343.226
66	0.31623	9340.33	3776.45	10074.9	22.0143	348.801
67	0.25119	9649.56	4369.87	10592.9	24.3637	356.301
68	0.19953	10057.7	5097.64	11275.8	26.8778	366.317
69	0.15849	10527.5	5991.33	12113	29.6446	386.082
70	0.12589	11053.8	6984.45	13075.5	32.287	396.122
71	0.1	11684.3	8215.5	14283.5	35.112	407.717

File: Z_p45_1.txt
Index	Frequency (Hz)	Z' (Ω)	-Z'' (Ω)	Z (Ω)	-Phase (°)	Time (s)
1	1000000	1998.84	1323.59	2397.34	33.5116	24.1443
2	794330	2191.84	1247.1	2521.79	29.6387	26.6643
3	630960	2423.1	1202.57	2705.1	26.395	29.7294
4	501190	2646.93	1129.1	2877.69	23.1015	32.1494
5	398110	2858.44	1029.35	3038.13	19.8045	40.1545
6	316230	3040.73	947.278	3184.87	17.3034	42.8196
7	251190	3133.75	823.831	3240.23	14.7292	50.3597
8	199530	3276.49	747.085	3360.58	12.8446	57.3949
9	158490	3389.2	667.087	3454.23	11.135	72.7702
10	125890	3483.74	590.249	3533.39	9.61627	81.0403
11	100000	3557.15	517.301	3594.56	8.27428	85.3854
12	79433	3617.95	452.822	3646.18	7.13403	89.8755
13	63096	3668.75	395.539	3690.01	6.15346	96.5406
14	50119	3706.89	344.482	3722.86	5.30927	102.806
15	39811	3741.79	300.493	3753.84	4.59141	106.786
16	31623	3771.23	263.514	3780.42	3.99703	109.211
17	25119	3794.68	234.017	3801.89	3.52894	111.841
18	19953	3818.64	209.767	3824.39	3.14424	115.966
19	15849	3838.07	187.892	3842.67	2.80267	119.751
20	12589	3858.19	172.11	3862.03	2.55421	128.921
21	10000	3873.44	157.753	3876.66	2.33219	133.946
22	7943.3	3891.91	147.496	3894.7	2.17036	137.956
23	6309.6	3908.26	138.782	3910.72	2.03372	140.216
24	5011.9	3920.62	132.04	3922.84	1.9289	142.686
25	3981.1	3937.17	127.041	3939.22	1.84812	145.366
26	3162.3	3950.91	123.107	3952.83	1.78471	147.412
27	2511.9	3965.32	120.702	3967.16	1.74351	149.962
28	1995.3	3982.67	119.113	3984.45	1.71308	152.637
29	1584.9	3996.71	118.121	3998.45	1.69286	155.057
30	1258.9	4011.44	117.897	4013.17	1.68345	157.787
31	1000	4026.74	118.039	4028.47	1.67908	160.257
32	794.33	4041.59	119.163	4043.34	1.68883	162.637
33	630.96	4058	120.828	4059.8	1.7055	165.122
34	501.19	4073.41	123.088	4075.26	1.73081	169.227
35	398.11	4088.65	125.862	4090.59	1.76319	171.877
36	316.23	4107.74	129.425	4109.78	1.80465	175.652
37	251.19	4125	134.544	4127.19	1.86813	179.037
38	199.53	4143.47	140.588	4145.85	1.9433	183.457
39	158.49	4162.53	147.75	4165.15	2.03288	186.122
40	125.89	4180.63	157.535	4183.6	2.15801	188.882
41	100	4199.95	167.382	4203.28	2.28223	191.512
42	79.433	4224.43	179.142	4228.23	2.42824	193.767
43	63.096	4246.45	193.084	4250.84	2.60342	196.212
44	50.119	4258.6	208.737	4263.72	2.80613	200.688
45	39.811	4297.37	227.066	4303.36	3.0246	211.988
46	31.623	4323.58	246.476	4330.6	3.26275	214.938
47	25.119	4358.19	270.888	4366.6	3.55671	218.293
48	19.953	4390.91	295.222	4400.82	3.84649	222.253
49	15.849	4429.56	325.742	4441.52	4.20585	225.268
50	12.589	4468.48	357.073	4482.72	4.56876	228.933
51	10	4514.75	393.742	4531.88	4.98429	232.198
52	7.9433	4563.13	433.419	4583.66	5.42584	234.963
53	6.3096	4615	476.244	4639.51	5.89177	237.583
54	5.0119	4673.54	527.884	4703.26	6.44433	240.323
55	3.9811	4737.16	585.954	4773.26	7.05128	243.063
56	3.1623	4802.09	649.605	4845.83	7.70394	245.773
57	2.5119	4875.45	720.502	4928.4	8.40641	248.663
58	1.9953	4955.63	800.01	5019.79	9.1704	251.593
59	1.5849	5040.11	888.841	5117.89	10.0015	254.774
60	1.2589	5126.39	1038.12	5230.44	11.4479	258.104
61	1	5218.54	1176.14	5349.44	12.7009	263.774
62	0.79433	5330.25	1348.01	5498.07	14.1924	267.224
63	0.63096	5434.75	1543.64	5649.72	15.8562	271.189
64	0.50119	5547.7	1777.45	5825.49	17.7651	275.429
65	0.39811	5683.17	2093.86	6056.62	20.2254	280.129
66	0.31623	5809.16	2467.19	6311.37	23.0113	285.404
67	0.25119	6000.15	2913.24	6669.99	25.8979	291.414
68	0.19953	6144.93	3462.35	7053.23	29.399	297.994
69	0.15849	6338.22	4129.22	7564.62	33.0834	305.554
70	0.12589	6617.7	4950.16	8264.26	36.7972	314.46
71	0.1	6891.5	5845.87	9036.98	40.307	325.115

File: Z_p46_1.txt
Index	Frequency (Hz)	Z' (Ω)	-Z'' (Ω)	Z (Ω)	-Phase (°)	Time (s)
1	1000000	3079.54	2377.76	3890.67	37.6722	19.4211
2	794330	3466.61	2172.47	4091.09	32.0747	21.1761
3	630960	3897.03	2050.14	4403.4	27.7478	22.8262
4	501190	4298.59	1931.95	4712.78	24.2009	24.6662
5	398110	4724.63	1747.4	5037.41	20.2969	29.3913
6	316230	5026.65	1585.75	5270.85	17.5089	31.3313
7	251190	5189.81	1382.53	5370.8	14.9168	35.8414
8	199530	5422.75	1246.3	5564.13	12.9434	37.4564
9	158490	5609.43	1107.01	5717.62	11.1637	39.3115
10	125890	5761.14	974.092	5842.91	9.59678	40.7265
11	100000	5881.25	852.082	5942.65	8.24372	42.4165
12	79433	5979.28	741.437	6025.08	7.06866	44.3616
13	63096	6056.99	644.057	6091.14	6.06962	46.2316
14	50119	6121.72	560.163	6147.3	5.22824	47.9866
15	39811	6175.55	488.296	6194.83	4.52093	49.6317
16	31623	6219.97	424.081	6234.41	3.90042	51.1917
17	25119	6256.68	378.771	6268.13	3.46438	52.9267
18	19953	6291.04	336.449	6300.03	3.0613	54.4918
19	15849	6322.21	302.373	6329.44	2.7382	56.1368
20	12589	6349.67	273.853	6355.57	2.46957	57.8068
21	10000	6378.58	251.644	6383.55	2.25923	59.5319
22	7943.3	6408.98	233.074	6413.22	2.08275	61.4419
23	6309.6	6434.04	218.638	6437.76	1.94625	63.3619
24	5011.9	6455.1	206.135	6458.39	1.82905	64.862
25	3981.1	6483.08	196.433	6486.05	1.73549	66.457
26	3162.3	6503.19	189.45	6505.95	1.66866	67.912
27	2511.9	6525.68	182.08	6528.22	1.59826	69.482
28	1995.3	6548.67	177.043	6551.07	1.54861	71.1621
29	1584.9	6573.01	172.697	6575.28	1.50503	72.5871
30	1258.9	6594.89	168.621	6597.05	1.46465	74.4121
31	1000	6618.65	165.715	6620.73	1.43425	75.9822
32	794.33	6639.98	162.5	6641.97	1.40192	77.5872
33	630.96	6664.45	160.496	6666.38	1.37955	79.0722
34	501.19	6686.78	157.567	6688.64	1.34987	80.6472
35	398.11	6708.4	155.752	6710.2	1.33003	82.1673
36	316.23	6730.7	154.928	6732.48	1.31861	83.7123
37	251.19	6751.85	155.02	6753.63	1.31526	85.3373
38	199.53	6775.41	154.808	6777.18	1.3089	86.8524
39	158.49	6796.26	156.221	6798.06	1.31679	88.4574
40	125.89	6814.92	159.29	6816.78	1.33898	90.3924
41	100	6835.4	161.9	6837.32	1.35683	92.0625
42	79.433	6859.47	165.818	6861.47	1.38477	93.7125
43	63.096	6879.67	170.83	6881.79	1.42243	95.5075
44	50.119	6920.62	136.614	6921.97	1.13088	97.1826
45	39.811	6926.13	183.433	6928.56	1.51707	106.783
46	31.623	6947.65	191.804	6950.29	1.58137	108.658
47	25.119	6972.94	203.347	6975.91	1.6704	110.703
48	19.953	6998.79	218.46	7002.2	1.78785	112.868
49	15.849	7031.13	227.817	7034.82	1.8558	115.213
50	12.589	7051.84	248.135	7056.2	2.01525	117.528
51	10	7085.8	267.992	7090.87	2.16595	120.118
52	7.9433	7112.85	294.627	7118.94	2.37194	122.808
53	6.3096	7147.33	323.092	7154.63	2.58827	125.553
54	5.0119	7179.9	352.807	7188.56	2.81315	128.523
55	3.9811	7216.51	394.421	7227.28	3.12841	131.443
56	3.1623	7250.26	443.561	7263.82	3.50091	134.323
57	2.5119	7306.82	517.044	7325.09	4.04761	137.128
58	1.9953	7334.58	566.279	7356.4	4.41486	140.003
59	1.5849	7380.07	680.045	7411.33	5.26472	142.933
60	1.2589	7424.65	753.642	7462.8	5.79598	146.633
61	1	7487.29	892.361	7540.28	6.79665	152.264
62	0.79433	7566.65	1048.96	7639.01	7.89255	155.879
63	0.63096	7633.84	1226.93	7731.81	9.13067	159.699
64	0.50119	7686.55	1461.33	7824.22	10.7643	164.059
65	0.39811	7787.68	1729.53	7977.42	12.5214	168.674
66	0.31623	7875.63	2070.08	8143.14	14.7269	173.684
67	0.25119	7963.4	2526.17	8354.47	17.6002	179.544
68	0.19953	8149.53	3008.8	8687.22	20.2641	186.439
69	0.15849	8324.28	3647.37	9088.29	23.6611	194.169
70	0.12589	8467.43	4374.65	9530.73	27.3229	203.135
71	0.1	8599.57	5417.59	10163.8	32.2103	213.77