Folder: Streamlit_cement_impedance/data/20200503 (part 6)

File: Z_p30_3.txt
Index	Frequency (Hz)	Z' (Ω)	-Z'' (Ω)	Z (Ω)	-Phase (°)	Time (s)
1	1000000	3601.33	6083.27	7069.36	59.3743	549.184
2	794330	4916.17	6293.55	7986.08	52.005	551.585
3	630960	6382.72	6678.28	9237.88	46.2963	554.031
4	501190	7783.57	7255.65	10640.9	42.9896	556.512
5	398110	9694.9	8148.87	12664.7	40.0481	558.948
6	316230	11275.5	8422.38	14073.8	36.7584	561.474
7	251190	12691.6	8252.25	15138.6	33.0325	567.132
8	199530	14258.8	8280.53	16488.8	30.145	569.388
9	158490	15827.4	8105.38	17782.1	27.1175	571.679
10	125890	17216	7886.01	18936.2	24.6107	573.945
11	100000	18546.9	7530.13	20017.3	22.0973	576.226
12	79433	19767.6	7107.06	21006.4	19.7751	578.487
13	63096	20873.9	6636.11	21903.3	17.6362	582.559
14	50119	21868.6	6145.81	22715.7	15.6972	584.82
15	39811	22759.7	5632.71	23446.3	13.9006	587.026
16	31623	23505.2	5096.87	24051.5	12.2346	589.352
17	25119	24127	4647.54	24570.5	10.9032	591.513
18	19953	24707.9	4245.76	25070.1	9.75037	593.639
19	15849	25229.3	3870.41	25524.5	8.7217	595.825
20	12589	25682.6	3534.14	25924.7	7.83515	598.056
21	10000	26061	3222.86	26259.5	7.04975	600.348
22	7943.3	26441.5	2982.74	26609.2	6.43607	602.304
23	6309.6	26793.5	2778.98	26937.2	5.92147	604.285
24	5011.9	27114.9	2611	27240.4	5.50026	606.306
25	3981.1	27424	2475.33	27535.5	5.15763	608.282
26	3162.3	27731.1	2364.97	27831.8	4.87451	610.223
27	2511.9	28014.6	2280.99	28107.4	4.65483	612.394
28	1995.3	28299.1	2217.31	28385.9	4.48011	614.375
29	1584.9	28591	2172.43	28673.4	4.34516	616.311
30	1258.9	28877.6	2139.77	28956.8	4.23775	618.282
31	1000	29162.2	2122.72	29239.4	4.16322	620.403
32	794.33	29461.4	2115.51	29537.2	4.10715	622.489
33	630.96	29746.6	2114.9	29821.7	4.06673	624.455
34	501.19	30033	2121.67	30107.9	4.04092	626.541
35	398.11	30342.7	2132.8	30417.6	4.02072	628.527
36	316.23	30643.8	2147.32	30718.9	4.00836	630.478
37	251.19	30965.7	2165.08	31041.3	3.99954	632.504
38	199.53	31272.5	2183.6	31348.6	3.9942	634.7
39	158.49	31604.8	2202.74	31681.4	3.98687	636.681
40	125.89	31905	2219.22	31982.1	3.97892	638.852
41	100	32229.9	2230.43	32307	3.95877	641.168
42	79.433	32557.6	2244.01	32634.8	3.94284	643.224
43	63.096	32893.9	2256.41	32971.2	3.92414	645.535
44	50.119	33265.5	2263.15	33342.4	3.892	647.651
45	39.811	33589.5	2261.29	33665.6	3.85141	657.508
46	31.623	33954.9	2259.65	34030	3.80734	659.829
47	25.119	34283	2243.04	34356.3	3.74336	662.225
48	19.953	34650.7	2238.4	34722.9	3.69612	664.751
49	15.849	34977.6	2210.52	35047.4	3.61618	667.342
50	12.589	35312.5	2176.81	35379.5	3.52749	670.108
51	10	35653.7	2129	35717.2	3.41726	673.179
52	7.9433	35970.2	2081.96	36030.4	3.31259	676.14
53	6.3096	36277.5	2021.52	36333.8	3.18943	679.246
54	5.0119	36554.8	1966.93	36607.7	3.07998	682.272
55	3.9811	36814.2	1911.9	36863.9	2.97291	685.353
56	3.1623	37085.7	1858.56	37132.2	2.869	688.534
57	2.5119	37321.6	1822.93	37366.1	2.79632	691.805
58	1.9953	37546.2	1798.26	37589.2	2.74207	695.146
59	1.5849	37750.3	1790.69	37792.8	2.7158	698.577
60	1.2589	37961.4	1811.04	38004.5	2.73137	702.148
61	1	38139	1864.92	38184.6	2.79941	706.205
62	0.79433	38321.7	1940.77	38370.8	2.89923	710.266
63	0.63096	38521.6	2051.97	38576.2	3.04915	714.512
64	0.50119	38656.7	2220.36	38720.4	3.28734	719.058
65	0.39811	38830.5	2463.62	38908.5	3.6303	724.099
66	0.31623	39011.6	2765.79	39109.6	4.05529	729.565
67	0.25119	39154.3	3163.45	39281.9	4.61915	735.746
68	0.19953	39402.8	3744.13	39580.2	5.42806	742.702
69	0.15849	39581.3	4390.35	39824.1	6.32937	750.768
70	0.12589	39857.8	5231.5	40199.7	7.47756	760.029
71	0.1	40168.9	6163.46	40639	8.72335	771.021

File: Z_p31_1.txt
Index	Frequency (Hz)	Z' (Ω)	-Z'' (Ω)	Z (Ω)	-Phase (°)	Time (s)
1	1000000	3291.89	5766.24	6639.73	60.2784	42.5336
2	794330	4485.73	5996.46	7488.61	53.2012	44.2636
3	630960	5789.58	6485.28	8693.57	48.2439	46.0386
4	501190	7170.36	7051.11	10056.5	44.5196	48.2187
5	398110	8874.52	8053.05	11983.7	42.2217	61.4489
6	316230	10406.9	8462.27	13413.2	39.1158	62.9389
7	251190	11855.3	8451.11	14559.2	35.4834	65.329
8	199530	13477.6	8626.3	16001.8	32.6212	66.629
9	158490	15087.6	8639.28	17386	29.7957	68.099
10	125890	16649.7	8483.14	18686.2	26.9992	69.4641
11	100000	18145	8201	19912.2	24.3216	70.9091
12	79433	19522.3	7807.67	21025.7	21.7982	72.1941
13	63096	20795	7334.09	22050.4	19.427	73.5791
14	50119	21934.9	6797.15	22963.9	17.2171	74.9542
15	39811	22956.2	6219.31	23783.7	15.1587	77.6442
16	31623	23805.4	5615.79	24458.8	13.2736	79.1392
17	25119	24515.5	5095.07	25039.4	11.7407	80.4493
18	19953	25129	4611.69	25548.7	10.3992	81.7793
19	15849	25685.7	4177.9	26023.3	9.23851	83.1243
20	12589	26164.1	3792.04	26437.5	8.24662	84.4343
21	10000	26559.7	3438.35	26781.4	7.37633	85.8544
22	7943.3	26949.8	3171.31	27135.8	6.7114	87.2594
23	6309.6	27310.6	2948.97	27469.4	6.16286	88.5444
24	5011.9	27645	2766.53	27783.1	5.71477	89.8744
25	3981.1	27972.6	2624.06	28095.4	5.35913	91.2495
26	3162.3	28271	2513.25	28382.5	5.08015	92.7695
27	2511.9	28556.4	2432.21	28659.8	4.86825	94.2995
28	1995.3	28880.4	2380.62	28978.4	4.71225	95.8995
29	1584.9	29149.3	2344.34	29243.4	4.59814	97.3496
30	1258.9	29458	2330.87	29550.1	4.52411	98.6496
31	1000	29767.7	2334.49	29859.1	4.48416	99.9546
32	794.33	30060.1	2352.21	30152	4.4743	101.325
33	630.96	30398.7	2383.2	30492	4.48272	102.63
34	501.19	30713.7	2424.9	30809.3	4.51424	104.21
35	398.11	31050.2	2476.06	31148.7	4.55933	105.5
36	316.23	31397.3	2540	31499.9	4.62508	106.79
37	251.19	31759.4	2615.42	31867	4.70773	108.11
38	199.53	32105.3	2693.06	32218.1	4.79486	109.48
39	158.49	32476.3	2781.62	32595.2	4.89549	110.945
40	125.89	32876.3	2879.64	33002.2	5.00577	112.455
41	100	33283	2986.34	33416.7	5.12718	113.81
42	79.433	33703.6	3104.64	33846.3	5.263	115.215
43	63.096	34116.2	3230.34	34268.8	5.409	116.715
44	50.119	34582	3372.92	34746.1	5.57068	118.51
45	39.811	35048.9	3529.12	35226.1	5.74981	127.735
46	31.623	35538	3698.76	35730	5.94188	130.135
47	25.119	36041.4	3884.08	36250.1	6.15085	131.885
48	19.953	36574	4106.99	36803.9	6.40705	133.87
49	15.849	37146.3	4336.17	37398.5	6.65813	136.24
50	12.589	37735.9	4589.94	38014	6.93501	138.5
51	10	38360.5	4871.06	38668.5	7.23676	140.825
52	7.9433	38991.9	5184.15	39335	7.57332	143.15
53	6.3096	39689.5	5533.7	40073.4	7.93729	145.655
54	5.0119	40378.9	5924.13	40811.2	8.34652	148.111
55	3.9811	41142.5	6372.21	41633.1	8.80409	151.541
56	3.1623	41932.1	6886.38	42493.8	9.32625	154.041
57	2.5119	42738.8	7479.37	43388.3	9.92636	156.791
58	1.9953	43610.3	8167.29	44368.5	10.6074	159.666
59	1.5849	44552	8979.71	45447.9	11.3956	162.446
60	1.2589	45531.5	9924.39	46600.6	12.2963	165.336
61	1	46614.1	11042.7	47904.2	13.3274	168.706
62	0.79433	47767.5	12315.9	49329.6	14.4578	173.586
63	0.63096	48961.8	13880.1	50891.2	15.8274	177.326
64	0.50119	50365.4	15733.4	52765.7	17.348	181.111
65	0.39811	51812.8	18061.5	54870.6	19.2181	185.331
66	0.31623	53487.9	20567.8	57306.1	21.0334	190.091
67	0.25119	55275.9	24011.4	60265.9	23.4798	195.466
68	0.19953	57159.4	27741.4	63535.7	25.8889	201.872
69	0.15849	59672.9	32373.5	67888.9	28.4805	209.117
70	0.12589	62726.2	37413.8	73036.7	30.8145	217.772
71	0.1	64991.7	43652.4	78290.8	33.8877	228.087

File: Z_p31_2.txt
Index	Frequency (Hz)	Z' (Ω)	-Z'' (Ω)	Z (Ω)	-Phase (°)	Time (s)
1	1000000	3270.58	5742.61	6608.65	60.3373	363.839
2	794330	4493.04	6003.34	7498.5	53.1879	365.349
3	630960	5826.1	6463.35	8701.63	47.9684	366.754
4	501190	7096.11	7042.74	9997.75	44.7837	368.329
5	398110	8877.75	8043.04	11979.4	42.1758	369.934
6	316230	10417.9	8457.91	13419	39.0719	371.379
7	251190	11843.9	8440.18	14543.5	35.4744	373.765
8	199530	13478	8607.72	15992.2	32.5644	375.12
9	158490	15083.7	8614.71	17370.4	29.7318	376.515
10	125890	16640.6	8465.88	18670.3	26.9647	377.915
11	100000	18124.2	8182.14	19885.5	24.2967	379.335
12	79433	19507.7	7793.09	21006.7	21.7761	380.64
13	63096	20773.2	7312.8	22022.8	19.3936	382.12
14	50119	21907.3	6778.18	22931.9	17.1922	383.81
15	39811	22916.8	6204.64	23741.9	15.1494	385.94
16	31623	23773.6	5597.87	24423.8	13.2498	387.455
17	25119	24475.5	5083.08	24997.8	11.7324	388.78
18	19953	25099.8	4602.56	25518.3	10.3909	390.08
19	15849	25638.8	4162.38	25974.5	9.22135	391.43
20	12589	26118.1	3779	26390	8.23295	392.735
21	10000	26519.7	3431.25	26740.8	7.37225	394.085
22	7943.3	26916.5	3164.51	27101.9	6.70534	395.425
23	6309.6	27264.8	2941.45	27423	6.15751	396.92
24	5011.9	27601.3	2761.93	27739.2	5.71429	398.385
25	3981.1	27919.9	2617.78	28042.3	5.35641	399.925
26	3162.3	28230.2	2509.01	28341.4	5.07893	401.46
27	2511.9	28512.2	2427.4	28615.4	4.86617	403.02
28	1995.3	28829.4	2376.11	28927.2	4.71164	404.515
29	1584.9	29120.4	2342.48	29214.5	4.59904	405.87
30	1258.9	29416.6	2327.68	29508.5	4.52429	407.37
31	1000	29734.4	2332.7	29825.8	4.48574	408.86
32	794.33	30034.2	2349.32	30125.9	4.47265	410.465
33	630.96	30361.9	2380.28	30455	4.48265	412.205
34	501.19	30673.7	2422.21	30769.1	4.51512	413.52
35	398.11	31024.5	2475.82	31123.1	4.56266	414.805
36	316.23	31344.2	2537.69	31446.8	4.62869	416.08
37	251.19	31713	2610.25	31820.2	4.70533	417.89
38	199.53	32073	2690.69	32185.7	4.79547	419.16
39	158.49	32456.5	2780.76	32575.4	4.89696	420.435
40	125.89	32834.6	2876.47	32960.3	5.0066	422.07
41	100	33219.7	2981.81	33353.2	5.12914	424.145
42	79.433	33660.7	3102.42	33803.3	5.26594	426.305
43	63.096	34095	3230.02	34247.7	5.41181	427.986
44	50.119	34547.9	3371.47	34712	5.57374	429.551
45	39.811	35008.6	3525.06	35185.6	5.74982	438.731
46	31.623	35489.4	3694.64	35681.2	5.94339	440.476
47	25.119	36000.7	3880.78	36209.3	6.15258	442.211
48	19.953	36543.2	4104.5	36773	6.40854	444.106
49	15.849	37113	4336.48	37365.5	6.66453	446.106
50	12.589	37697.7	4589.03	37976	6.9406	448.316
51	10	38320.1	4867.93	38628.1	7.23968	450.621
52	7.9433	38940.9	5181.6	39284.1	7.57944	452.936
53	6.3096	39660.8	5535.45	40045.2	7.94544	455.341
54	5.0119	40357.3	5925.81	40790	8.35326	457.731
55	3.9811	41078.6	6365.11	41568.9	8.8079	460.201
56	3.1623	41879.9	6880.1	42441.3	9.32931	462.616
57	2.5119	42710	7478.25	43359.8	9.93145	465.171
58	1.9953	43598.7	8167.23	44357.1	10.6101	467.786
59	1.5849	44521.6	8976.9	45417.6	11.3997	470.531
60	1.2589	45477.1	9922.16	46546.9	12.3079	473.416
61	1	46556.1	11026.8	47844.2	13.325	476.706
62	0.79433	47770.7	12357.5	49343.2	14.5035	479.901
63	0.63096	48899.5	13842.8	50821.1	15.8061	483.397
64	0.50119	50295.2	15766.1	52708.4	17.4047	487.217
65	0.39811	51684	18055.1	54746.9	19.2561	491.417
66	0.31623	53488.4	20611.3	57322.2	21.0737	496.122
67	0.25119	55167.3	23992.5	60158.7	23.5044	501.472
68	0.19953	57212	27781.3	63600.4	25.9005	507.632
69	0.15849	59754.4	32334.4	67941.9	28.4188	514.847
70	0.12589	62555.3	37141.1	72750.5	30.699	523.347
71	0.1	64934.5	44084.6	78485.3	34.1729	533.567

File: Z_p31_3.txt
Index	Frequency (Hz)	Z' (Ω)	-Z'' (Ω)	Z (Ω)	-Phase (°)	Time (s)
1	1000000	3300.31	5753.97	6633.27	60.1627	618.516
2	794330	4469.64	5972.48	7459.77	53.1898	620.672
3	630960	5778.97	6455.2	8664.08	48.1637	622.833
4	501190	7099.45	7029.84	9991.04	44.7177	625.084
5	398110	8840.33	8000.37	11923	42.1447	627.21
6	316230	10389.3	8411.55	13367.6	38.9948	629.381
7	251190	11807.3	8403.98	14492.8	35.4417	634.959
8	199530	13428.7	8582.98	15937.3	32.5848	637
9	158490	15017.8	8589.95	17300.9	29.7689	639.181
10	125890	16577.8	8435.71	18600.6	26.9696	641.987
11	100000	18048.9	8154.58	19805.5	24.3137	644.243
12	79433	19442.5	7763.58	20935.2	21.7674	648.225
13	63096	20687.6	7291.21	21934.8	19.4147	650.321
14	50119	21825.8	6762.64	22849.5	17.2154	652.522
15	39811	22846.6	6187.73	23669.7	15.1543	654.644
16	31623	23692.7	5585.52	24342.2	13.2652	656.675
17	25119	24388.9	5052.14	24906.7	11.7032	658.716
18	19953	25012.8	4591.79	25430.8	10.4024	660.762
19	15849	25559.2	4153.12	25894.4	9.22935	662.768
20	12589	26039.9	3771.55	26311.6	8.24124	664.829
21	10000	26438.2	3424.33	26659	7.37999	667.03
22	7943.3	26822	3157.51	27007.2	6.71401	669.066
23	6309.6	27190.2	2936.19	27348.3	6.16331	671.117
24	5011.9	27525.2	2755.62	27662.8	5.71698	673.243
25	3981.1	27828.8	2609.79	27950.9	5.35753	675.514
26	3162.3	28139.3	2502.86	28250.4	5.08282	677.7
27	2511.9	28448.3	2424.29	28551.4	4.87084	679.846
28	1995.3	28740.2	2369.52	28837.7	4.71315	682.102
29	1584.9	29041	2336.84	29134.9	4.6005	684.168
30	1258.9	29333	2321.09	29424.7	4.52433	686.389
31	1000	29640.1	2324.9	29731.1	4.48498	688.46
32	794.33	29942.8	2343.7	30034.3	4.47557	690.601
33	630.96	30262.1	2374.62	30355.1	4.48672	692.727
34	501.19	30584.4	2414.26	30679.5	4.51342	694.863
35	398.11	30920.6	2468.31	31019	4.56409	696.884
36	316.23	31273.9	2531.17	31376.2	4.62718	699.22
37	251.19	31631.4	2603.37	31738.4	4.70503	701.546
38	199.53	31985.1	2681.11	32097.3	4.79154	703.652
39	158.49	32362.3	2770.76	32480.7	4.89354	705.893
40	125.89	32750.2	2867.29	32875.4	5.00351	707.99
41	100	33135.4	2973.1	33268.5	5.12718	710.151
42	79.433	33552.1	3088.66	33694	5.25958	712.442
43	63.096	33988.8	3216.17	34140.6	5.40549	714.613
44	50.119	34443.9	3357.27	34607.2	5.56707	716.814
45	39.811	34902.5	3512.78	35078.8	5.74722	726.675
46	31.623	35387.9	3679.88	35578.7	5.93668	729.096
47	25.119	35906.5	3866.45	36114.1	6.14599	731.487
48	19.953	36442	4082.49	36669.9	6.39202	734.143
49	15.849	36993.8	4311.17	37244.1	6.64713	736.839
50	12.589	37578.9	4565.23	37855.2	6.92656	739.675
51	10	38188.8	4843.79	38494.7	7.22869	742.821
52	7.9433	38847.3	5154.09	39187.7	7.55761	746.032
53	6.3096	39528.5	5505.37	39910	7.92893	749.258
54	5.0119	40243.5	5896.59	40673.2	8.33582	752.359
55	3.9811	40973	6333.87	41459.7	8.78758	755.645
56	3.1623	41750.9	6844.45	42308.2	9.30998	759.051
57	2.5119	42574.7	7440.28	43219.9	9.91281	762.388
58	1.9953	43426.5	8127	44180.4	10.5999	765.904
59	1.5849	44376.4	8927.44	45265.5	11.3747	769.45
60	1.2589	45300.6	9849.84	46359.1	12.2671	773.186
61	1	46361.8	10976.8	47643.5	13.3202	777.432
62	0.79433	47539.4	12250.2	49092.4	14.4499	781.438
63	0.63096	48765.6	13775.1	50673.8	15.7737	785.944
64	0.50119	50077.7	15704.4	52482.4	17.4114	790.555
65	0.39811	51565.3	17927.3	54592.7	19.1706	795.546
66	0.31623	52997.8	20554.6	56844.1	21.1982	801.102
67	0.25119	54806.2	23816.7	59757.4	23.4879	807.433
68	0.19953	57236.3	27339.8	63430.7	25.5322	814.404
69	0.15849	59685	32094.4	67766.9	28.2682	822.446
70	0.12589	62420.6	37387.3	72760.8	30.9198	831.847
71	0.1	65319.3	43317.7	78377.5	33.5511	842.973

File: Z_p32_1.txt
Index	Frequency (Hz)	Z' (Ω)	-Z'' (Ω)	Z (Ω)	-Phase (°)	Time (s)
1	1000000	3273.27	5816.23	6674.05	60.63	26.4942
2	794330	4447.36	6081.66	7534.29	53.823	28.4393
3	630960	5787.07	6587.46	8768.4	48.7008	30.4893
4	501190	7112.98	7233.01	10144.5	45.4794	32.5244
5	398110	8805.17	8309.03	12106.7	43.3395	34.3994
6	316230	10329.3	8810.38	13576.4	40.4625	36.0694
7	251190	11796.3	8896.17	14774.8	37.0218	40.1095
8	199530	13460.6	9192.6	16300.1	34.3302	41.9145
9	158490	15139.7	9357.74	17798.3	31.7199	43.6646
10	125890	16796.9	9381.41	19239.2	29.1842	45.3996
11	100000	18414.2	9284.2	20622.3	26.7566	47.2096
12	79433	20016	9062.66	21972.1	24.3596	49.0497
13	63096	21501.9	8762.14	23218.6	22.1712	50.8397
14	50119	22940.7	8364.5	24418.1	20.0325	52.4547
15	39811	24269.2	7893.82	25520.7	18.0177	53.9698
16	31623	25473.8	7344.55	26511.5	16.0832	56.2498
17	25119	26550.9	6786.97	27404.7	14.3389	58.0398
18	19953	27504	6237.74	28202.5	12.7782	59.8499
19	15849	28346.4	5695.28	28912.9	11.3605	62.7549
20	12589	29074.5	5192.95	29534.6	10.1267	64.2649
21	10000	29685.8	4696.35	30055	8.9898	65.98
22	7943.3	30252.4	4297.01	30556	8.08413	67.6
23	6309.6	30751.7	3945.47	31003.8	7.31115	69.225
24	5011.9	31191.4	3646.61	31403.9	6.66822	70.7501
25	3981.1	31625.3	3397.33	31807.3	6.13145	72.3201
26	3162.3	32025.6	3197.93	32184.9	5.70239	73.9851
27	2511.9	32389.8	3033.43	32531.6	5.35036	75.9102
28	1995.3	32745.3	2912.27	32874.6	5.08234	77.6752
29	1584.9	33104.7	2820.6	33224.7	4.86997	79.4302
30	1258.9	33439	2755.87	33552.3	4.71138	81.1503
31	1000	33788.4	2714.08	33897.3	4.59246	82.7253
32	794.33	34137.6	2695.55	34243.9	4.51478	84.5453
33	630.96	34487.5	2695.93	34592.7	4.46978	86.2404
34	501.19	34856	2712.19	34961.4	4.44929	87.8954
35	398.11	35225	2741.52	35331.5	4.45029	89.2604
36	316.23	35589.9	2789.13	35699	4.48104	91.0354
37	251.19	35968.6	2844.51	36080.9	4.52172	92.7355
38	199.53	36363.9	2912.13	36480.4	4.57864	94.3205
39	158.49	36755.8	2991.46	36877.4	4.65289	95.8855
40	125.89	37161.6	3079.96	37289.1	4.73786	97.5906
41	100	37585.8	3182.04	37720.2	4.83916	99.3656
42	79.433	38026.8	3296.12	38169.3	4.95396	101.261
43	63.096	38468.8	3427.35	38621.2	5.09128	103.296
44	50.119	38963.6	3574.95	39127.2	5.24227	105.251
45	39.811	39438.7	3737.41	39615.4	5.41347	114.676
46	31.623	39941.4	3922.35	40133.6	5.60861	116.631
47	25.119	40464.9	4137.17	40675.9	5.83769	119.316
48	19.953	41009.2	4388.13	41243.3	6.10762	121.521
49	15.849	41570.3	4664.35	41831.2	6.40203	124.006
50	12.589	42171.2	4982.64	42464.5	6.73841	126.466
51	10	42803.9	5342.18	43136	7.11406	128.966
52	7.9433	43491.7	5750.98	43870.3	7.53262	131.976
53	6.3096	44182.3	6230.08	44619.4	8.02628	134.571
54	5.0119	44941.5	6777.89	45449.7	8.57648	137.446
55	3.9811	45759.1	7406.88	46354.7	9.19455	140.231
56	3.1623	46636.9	8147.84	47343.3	9.91001	142.936
57	2.5119	47567.9	9002.24	48412.2	10.7165	145.966
58	1.9953	48595.1	9991.08	49611.6	11.618	148.922
59	1.5849	49727.4	11133.5	50958.5	12.6199	151.977
60	1.2589	50951.9	12469.6	52455.6	13.7518	155.392
61	1	52246.9	14015.9	54094.2	15.0168	159.132
62	0.79433	53825.4	15876.4	56118	16.434	162.857
63	0.63096	55505.9	17897.7	58320.1	17.8718	166.667
64	0.50119	57217.3	20374	60736.5	19.5998	171.047
65	0.39811	59328	23159.3	63688.1	21.3237	175.687
66	0.31623	61639.6	26585.4	67128.4	23.3307	180.862
67	0.25119	63940.7	30633.5	70900.1	25.5987	186.742
68	0.19953	67173.2	35133.9	75806.6	27.6111	193.177
69	0.15849	70432.5	40561.4	81277.1	29.9372	200.632
70	0.12589	74008.8	47531.9	87957.9	32.7105	209.283
71	0.1	79287	54943.8	96463.7	34.7209	219.578

File: Z_p32_2.txt
Index	Frequency (Hz)	Z' (Ω)	-Z'' (Ω)	Z (Ω)	-Phase (°)	Time (s)
1	1000000	3241.42	5827.2	6668.06	60.9147	252.624
2	794330	4448.22	6080.94	7534.22	53.8145	254.054
3	630960	5785.69	6630.92	8800.19	48.8943	255.694
4	501190	7232.82	7217.1	10217.6	44.9377	257.309
5	398110	8807.95	8303.25	12104.7	43.3105	258.884
6	316230	10325.5	8795.21	13563.6	40.4242	260.274
7	251190	11787.4	8888.44	14763.1	37.0185	262.719
8	199530	13442.4	9195.87	16286.9	34.3758	264.234
9	158490	15087.7	9338.49	17743.9	31.7553	265.754
10	125890	16778.1	9378.68	19221.4	29.2045	267.275
11	100000	18423.6	9281.73	20629.6	26.7387	268.88
12	79433	19996	9072.14	21957.8	24.4037	270.445
13	63096	21509.8	8762	23226	22.1635	271.93
14	50119	22944.2	8363.95	24421.1	20.0285	273.45
15	39811	24277.8	7887.74	25527	17.9987	274.845
16	31623	25478	7348.8	26516.6	16.0896	276.33
17	25119	26560.3	6792.04	27415	14.3444	277.835
18	19953	27503.8	6236.59	28202.1	12.776	279.295
19	15849	28351.4	5700.78	28918.9	11.3692	280.835
20	12589	29071.4	5181.3	29529.5	10.1055	282.26
21	10000	29670.2	4694.22	30039.2	8.99045	283.69
22	7943.3	30255.7	4294.02	30558.9	8.07772	285.165
23	6309.6	30747.2	3942.83	30999	7.30737	287.145
24	5011.9	31205.7	3645.39	31417.9	6.66299	288.805
25	3981.1	31630.6	3398.65	31812.7	6.1328	291.185
26	3162.3	32020.6	3197.8	32179.9	5.70305	292.685
27	2511.9	32397.5	3037.13	32539.5	5.35559	294.13
28	1995.3	32757.7	2912.42	32886.9	5.08069	295.605
29	1584.9	33104.2	2818.5	33224	4.86644	296.955
30	1258.9	33447.5	2755.33	33560.7	4.70927	298.33
31	1000	33800.4	2715.62	33909.4	4.59344	299.815
32	794.33	34152	2697.25	34258.4	4.51572	301.295
33	630.96	34517.1	2697.73	34622.3	4.46894	302.71
34	501.19	34861	2710.82	34966.3	4.44642	304.165
35	398.11	35228.9	2742.68	35335.5	4.45166	305.6
36	316.23	35599.6	2786.52	35708.5	4.47564	307.065
37	251.19	35988.1	2844.97	36100.4	4.52001	308.515
38	199.53	36377.5	2910.82	36493.7	4.5749	309.91
39	158.49	36797	2993.09	36918.6	4.65023	311.425
40	125.89	37189.7	3079.47	37317	4.73353	313.03
41	100	37607.9	3180.68	37742.1	4.83428	314.485
42	79.433	38040.6	3296.67	38183.2	4.953	315.915
43	63.096	38500.3	3428.88	38652.7	5.08939	317.455
44	50.119	38990.1	3575.41	39153.7	5.23938	319.04
45	39.811	39479.4	3740.81	39656.3	5.41281	328.266
46	31.623	39964.9	3923.71	40157.1	5.60726	329.986
47	25.119	40488.9	4139.83	40700	5.83799	331.636
48	19.953	41058.7	4395.51	41293.3	6.11049	333.621
49	15.849	41606	4667.89	41867	6.4014	335.776
50	12.589	42220.2	4983.57	42513.3	6.73191	337.931
51	10	42856.8	5339.84	43188.2	7.10229	340.336
52	7.9433	43540.4	5760.68	43919.8	7.53684	342.736
53	6.3096	44249.3	6233.43	44686.2	8.01854	345.211
54	5.0119	44996.4	6778.44	45504.1	8.56686	347.706
55	3.9811	45798.7	7413.74	46394.9	9.19508	350.421
56	3.1623	46684	8148.6	47389.8	9.90112	352.956
57	2.5119	47621.2	9008.26	48465.7	10.7118	355.621
58	1.9953	48632.2	9986.9	49647	11.6047	358.381
59	1.5849	49773.6	11147.6	51006.7	12.624	361.176
60	1.2589	50977.7	12479.3	52482.9	13.7555	364.166
61	1	52337.9	14080	54198.7	15.0573	367.511
62	0.79433	53912.7	15818.7	56185.5	16.3524	370.861
63	0.63096	55469.4	17891.4	58283.5	17.8769	374.506
64	0.50119	57305.2	20432.6	60838.9	19.6241	378.372
65	0.39811	59218.1	23295.2	63635.3	21.4737	382.707
66	0.31623	61541.4	26883.8	67157.2	23.5977	387.612
67	0.25119	64257.4	30578.3	71162.1	25.4485	393.112
68	0.19953	67445.7	35321.5	76134.9	27.6412	399.512
69	0.15849	70774.3	40686.2	81635.6	29.8934	406.922
70	0.12589	74068	47267	87864.9	32.5442	415.577
71	0.1	79116	55588.3	96692.3	35.0925	426.007

File: Z_p32_3.txt
Index	Frequency (Hz)	Z' (Ω)	-Z'' (Ω)	Z (Ω)	-Phase (°)	Time (s)
1	1000000	3254.45	5801.81	6652.25	60.7103	461.65
2	794330	4426.06	6089.14	7527.79	53.9874	464.061
3	630960	5817.15	6651.27	8836.21	48.8273	466.482
4	501190	7170.77	7227.3	10181.1	45.225	468.978
5	398110	8783.47	8310.07	12091.6	43.4136	471.489
6	316230	10354	8806.77	13592.8	40.3833	473.92
7	251190	11800.1	8909.2	14785.6	37.0533	478.252
8	199530	13471	9212.47	16319.8	34.3673	480.453
9	158490	15153.1	9352.21	17806.7	31.6822	482.694
10	125890	16807.4	9398.06	19256.5	29.2122	485.11
11	100000	18443.4	9301.36	20656.1	26.7627	487.551
12	79433	20018	9089.78	21985.1	24.4219	489.777
13	63096	21527.3	8776.4	23247.5	22.1801	492.228
14	50119	22972.8	8383.41	24454.7	20.0484	494.63
15	39811	24303.6	7908.07	25557.9	18.0242	496.941
16	31623	25531.5	7366.08	26572.8	16.0934	499.147
17	25119	26607.3	6818	27466.9	14.3726	503.339
18	19953	27551.6	6250.99	28251.8	12.783	505.55
19	15849	28383	5703.4	28950.4	11.3619	509.802
20	12589	29110.1	5196.01	29570.2	10.1204	511.913
21	10000	29716.2	4705.05	30086.3	8.99712	514.269
22	7943.3	30299.3	4304.36	30603.5	8.08542	516.57
23	6309.6	30805.3	3952.98	31057.9	7.31231	519.076
24	5011.9	31258.2	3655.47	31471.3	6.67011	521.457
25	3981.1	31677.1	3406.87	31859.8	6.13855	523.798
26	3162.3	32082.7	3204.18	32242.4	5.70335	526.224
27	2511.9	32445	3043.28	32587.4	5.35856	528.49
28	1995.3	32805	2917.92	32934.5	5.08294	530.791
29	1584.9	33165.3	2826.4	33285.5	4.87106	532.997
30	1258.9	33519.5	2759.38	33632.9	4.70606	535.298
31	1000	33846.9	2717.86	33955.9	4.59091	537.619
32	794.33	34204.2	2698.57	34310.5	4.51106	539.965
33	630.96	34555.6	2698.8	34660.8	4.46575	542.331
34	501.19	34922.6	2715.72	35028	4.4466	544.607
35	398.11	35284.8	2744.45	35391.4	4.44751	546.909
36	316.23	35676.2	2791.6	35785.3	4.47418	549.295
37	251.19	36055.4	2847.92	36167.7	4.51626	551.696
38	199.53	36443.5	2915.47	36560	4.57389	553.887
39	158.49	36840	2992.81	36961.4	4.6444	556.678
40	125.89	37244.9	3082.53	37372.3	4.73123	559.149
41	100	37666	3181.9	37800.1	4.8287	561.505
42	79.433	38100.6	3297.97	38243.1	4.94716	563.866
43	63.096	38558.8	3430.66	38711.1	5.08434	566.342
44	50.119	39045.2	3579.81	39209	5.23845	568.873
45	39.811	39513.7	3739.56	39690.2	5.40635	579.104
46	31.623	40031.5	3925.14	40223.5	5.60001	581.755
47	25.119	40564.2	4137.46	40774.7	5.8239	584.346
48	19.953	41086.2	4390.86	41320.1	6.10002	587.177
49	15.849	41677.2	4670.35	41938.1	6.39389	590.123
50	12.589	42275.6	4979.76	42567.9	6.71807	593.209
51	10	42917.9	5344.91	43249.4	7.09895	596.61
52	7.9433	43594.5	5753.18	43972.5	7.5179	600.016
53	6.3096	44284.6	6228.81	44720.5	8.00636	603.403
54	5.0119	45042.4	6774.66	45549	8.55354	606.944
55	3.9811	45874.2	7414.02	46469.4	9.18057	610.325
56	3.1623	46737.8	8148.39	47442.8	9.88971	613.811
57	2.5119	47678.1	8996.21	48519.4	10.6853	617.522
58	1.9953	48686.1	9997.98	49702.1	11.6047	621.113
59	1.5849	49815.4	11130.2	51043.6	12.5947	624.919
60	1.2589	51049	12452.8	52545.9	13.7089	628.765
61	1	52389.8	14022.9	54234.1	14.9847	633.051
62	0.79433	53973.2	15862.2	56255.8	16.3776	637.227
63	0.63096	55603.3	17931.9	58423.3	17.8743	641.738
64	0.50119	57423.1	20331.7	60916.3	19.4975	646.469
65	0.39811	59427	23343.9	63847.6	21.4457	651.81
66	0.31623	61588.5	26581.9	67080.1	23.3453	658.782
67	0.25119	64244.5	30554.5	71140.2	25.4357	665.273
68	0.19953	67226.9	35726.2	76130.3	27.9874	672.464
69	0.15849	70453	40685.4	81356.8	30.0057	680.985
70	0.12589	74278.4	47053.6	87927.9	32.3533	690.576
71	0.1	78379.6	55039.2	95774	35.077	701.907