Folder: Streamlit_cement_impedance/data/20200619 (part 8)

File: Z_p34_1.txt
Index	Frequency (Hz)	Z' (Ω)	-Z'' (Ω)	Z (Ω)	-Phase (°)	Time (s)
1	1000000	3627.51	3358.5	4943.52	42.7949	77.9452
2	794330	4225.27	3114.69	5249.21	36.3961	79.4152
3	630960	4867.91	2985.23	5710.36	31.5186	80.8003
4	501190	5487.08	2878.33	6196.2	27.6799	82.2703
5	398110	6187.82	2751.17	6771.86	23.9704	86.3404
6	316230	6681.82	2585.88	7164.74	21.1565	87.6154
7	251190	7003.87	2290.71	7368.95	18.111	91.6105
8	199530	7399.25	2115.2	7695.64	15.9535	92.9205
9	158490	7734.18	1923.79	7969.85	13.9682	94.2105
10	125890	8019.28	1731.82	8204.15	12.1863	95.5405
11	100000	8252.29	1546.48	8395.95	10.6141	96.9356
12	79433	8452.24	1376.53	8563.59	9.25	98.1906
13	63096	8616.72	1216.89	8702.22	8.03843	99.5756
14	50119	8758.25	1073.05	8823.74	6.98501	101.006
15	39811	8878.03	941.887	8927.85	6.05596	102.421
16	31623	8970.79	827.242	9008.85	5.26863	103.691
17	25119	9056.21	735.376	9086.02	4.64231	104.951
18	19953	9131.05	654.797	9154.5	4.10172	106.211
19	15849	9200.75	585.183	9219.34	3.63921	107.511
20	12589	9257.59	526.73	9272.56	3.25645	108.821
21	10000	9310.28	475.237	9322.4	2.92209	110.076
22	7943.3	9363.67	432.809	9373.67	2.64645	111.346
23	6309.6	9409.82	392.951	9418.02	2.39126	112.701
24	5011.9	9454.85	362.449	9461.79	2.19534	114.026
25	3981.1	9492.23	334.905	9498.14	2.02067	115.346
26	3162.3	9529.39	311.357	9534.47	1.87138	116.591
27	2511.9	9563.71	290.624	9568.12	1.74058	117.831
28	1995.3	9606.85	272.824	9610.72	1.6267	119.221
29	1584.9	9647.68	257.594	9651.12	1.52944	120.506
30	1258.9	9665.35	245.912	9668.48	1.45744	124.136
31	1000	9696.5	232.384	9699.28	1.37287	125.306
32	794.33	9728.11	222.406	9730.65	1.30968	126.691
33	630.96	9751.74	213.396	9754.07	1.25359	127.946
34	501.19	9787.78	205.918	9789.94	1.20522	129.266
35	398.11	9812.78	198.846	9814.79	1.16088	130.581
36	316.23	9840.09	195.771	9842.04	1.13976	131.911
37	251.19	9861.58	193.184	9863.48	1.12226	133.246
38	199.53	9882.42	192.266	9884.29	1.11457	134.426
39	158.49	9914.24	193.646	9916.13	1.11896	135.741
40	125.89	9939.37	197.871	9941.34	1.14049	137.121
41	100	9963.2	200.475	9965.22	1.15273	138.426
42	79.433	9984.86	208.49	9987.04	1.1962	139.801
43	63.096	10012.1	218.071	10014.5	1.24775	141.241
44	50.119	10098	260.485	10101.4	1.47765	142.736
45	39.811	10065.9	239.394	10068.7	1.3624	151.832
46	31.623	10089.7	259.512	10093	1.47335	153.492
47	25.119	10121.5	278.544	10125.3	1.57639	155.167
48	19.953	10153.2	304.806	10157.8	1.71954	157.087
49	15.849	10187.3	342.815	10193.1	1.92735	159.042
50	12.589	10230	372.039	10236.7	2.08279	161.017
51	10	10267	412.163	10275.2	2.29888	163.307
52	7.9433	10308.3	464.975	10318.8	2.58268	165.647
53	6.3096	10355.1	523.052	10368.3	2.89165	167.967
54	5.0119	10405.7	596.849	10422.8	3.28278	170.442
55	3.9811	10453.5	681.671	10475.7	3.73098	172.867
56	3.1623	10519.6	772.413	10547.9	4.19946	175.432
57	2.5119	10579.4	915.823	10618.9	4.94758	178.037
58	1.9953	10667.2	1027.92	10716.6	5.50419	180.582
59	1.5849	10732.7	1181.08	10797.5	6.27984	183.447
60	1.2589	10834.1	1452.27	10931	7.63473	186.337
61	1	10927.6	1681.8	11056.2	8.74941	191.472
62	0.79433	11070.1	1983.78	11246.5	10.1596	194.577
63	0.63096	11173.3	2352.02	11418.2	11.8874	198.132
64	0.50119	11347.3	2804.85	11688.8	13.8842	201.888
65	0.39811	11529.7	3373.25	12013	16.308	206.053
66	0.31623	11727	4006.83	12392.6	18.8641	210.813
67	0.25119	11981.5	4901.62	12945.3	22.2495	216.223
68	0.19953	12238.9	5885.17	13580.4	25.6809	222.518
69	0.15849	12623.8	7098.03	14482.5	29.3478	229.868
70	0.12589	13115.5	8416.09	15583.6	32.6879	238.413
71	0.1	13398.2	10183.6	16829.1	37.2373	248.668

File: Z_p34_2.txt
Index	Frequency (Hz)	Z' (Ω)	-Z'' (Ω)	Z (Ω)	-Phase (°)	Time (s)
1	1000000	3606.94	3378.13	4941.84	43.1238	394.093
2	794330	4234.06	3122.57	5260.96	36.4083	395.548
3	630960	4878.32	3008.58	5731.45	31.6632	396.963
4	501190	5513.2	2886.01	6222.89	27.6308	398.443
5	398110	6198.08	2750.7	6781.04	23.9316	402.538
6	316230	6703.24	2600.06	7189.83	21.2004	403.898
7	251190	7010.23	2293.89	7375.99	18.1192	407.933
8	199530	7405.94	2117.75	7702.78	15.958	409.203
9	158490	7743.43	1930.59	7980.47	13.9996	410.578
10	125890	8031.03	1734.96	8216.3	12.1904	411.923
11	100000	8265.28	1549.53	8409.28	10.6182	413.373
12	79433	8466.02	1378.4	8577.5	9.24748	414.638
13	63096	8631.14	1219.6	8716.87	8.04276	415.998
14	50119	8770.22	1075.61	8835.93	6.99202	417.358
15	39811	8895.18	944.581	8945.19	6.06154	418.668
16	31623	8984.77	828.69	9022.91	5.26963	420.003
17	25119	9064.22	738.694	9094.27	4.65906	421.273
18	19953	9148.39	657.745	9172	4.11234	422.593
19	15849	9209.78	588.599	9228.57	3.65681	423.943
20	12589	9272.11	526.541	9287.04	3.2502	425.293
21	10000	9326.84	477.12	9339.03	2.92845	426.648
22	7943.3	9381.96	432.348	9391.92	2.63849	427.984
23	6309.6	9426.29	396.417	9434.62	2.40812	429.294
24	5011.9	9472.35	361.927	9479.26	2.18814	430.549
25	3981.1	9507.45	335.428	9513.37	2.02059	431.844
26	3162.3	9548.28	312.774	9553.4	1.87617	433.234
27	2511.9	9584.72	291.865	9589.16	1.74418	434.574
28	1995.3	9628.07	273.943	9631.96	1.62977	435.929
29	1584.9	9661.98	258.503	9665.43	1.53257	437.214
30	1258.9	9686.53	245.488	9689.64	1.45175	440.054
31	1000	9716.72	233.88	9719.53	1.37883	441.249
32	794.33	9745.04	223.129	9747.59	1.31165	442.664
33	630.96	9774.65	214.083	9776.99	1.25468	443.949
34	501.19	9800.93	206.732	9803.11	1.20837	445.219
35	398.11	9826.89	200.968	9828.95	1.17158	446.479
36	316.23	9853.5	195.023	9855.43	1.13387	447.819
37	251.19	9884.57	195.087	9886.5	1.13067	449.144
38	199.53	9906.55	194.115	9908.45	1.12254	450.419
39	158.49	9931.42	196.596	9933.36	1.13404	451.719
40	125.89	9956.47	197.795	9958.43	1.13809	453.204
41	100	9979.87	201.426	9981.91	1.15625	454.559
42	79.433	10002.6	208.06	10004.8	1.19161	455.899
43	63.096	10032.2	218.122	10034.6	1.24554	457.349
44	50.119	10072.9	222.552	10075.3	1.2657	458.759
45	39.811	10083.7	244.134	10086.7	1.3869	467.964
46	31.623	10115.1	262.805	10118.6	1.48829	469.614
47	25.119	10142.4	276.209	10146.2	1.55996	471.324
48	19.953	10173.4	305.197	10178	1.71833	473.259
49	15.849	10208.8	339.909	10214.4	1.907	475.209
50	12.589	10252.4	372.939	10259.1	2.08327	477.179
51	10	10280.3	411.839	10288.6	2.29409	479.564
52	7.9433	10330.5	463.719	10340.9	2.57019	481.835
53	6.3096	10379.6	526.042	10393	2.90128	484.3
54	5.0119	10423	597.551	10440.1	3.28118	486.695
55	3.9811	10481.5	679.314	10503.5	3.7082	489.225
56	3.1623	10543.7	781.183	10572.6	4.2373	491.67
57	2.5119	10617.5	916.097	10657	4.93135	494.345
58	1.9953	10669.9	1021.32	10718.7	5.46766	496.99
59	1.5849	10733	1203.86	10800.3	6.39975	499.755
60	1.2589	10853	1443.02	10948.5	7.57362	502.68
61	1	10952.2	1686.08	11081.2	8.75194	507.88
62	0.79433	11091.3	1984.63	11267.4	10.1449	510.99
63	0.63096	11203.2	2366.47	11450.4	11.9274	514.52
64	0.50119	11366.3	2817.45	11710.3	13.9218	518.43
65	0.39811	11530.1	3385.91	12017	16.3653	522.56
66	0.31623	11760.3	4027	12430.7	18.9024	527.345
67	0.25119	11969.7	4912.16	12938.4	22.3124	532.77
68	0.19953	12237.2	5879.15	13576.2	25.6611	539.061
69	0.15849	12611	7104.17	14474.3	29.394	546.341
70	0.12589	13130.7	8466.85	15623.8	32.8144	554.876
71	0.1	13402.2	10204.1	16844.7	37.2849	564.971

File: Z_p34_3.txt
Index	Frequency (Hz)	Z' (Ω)	-Z'' (Ω)	Z (Ω)	-Phase (°)	Time (s)
1	1000000	3610.67	3366.35	4936.52	42.9944	712.164
2	794330	4236.12	3124.8	5263.94	36.4145	714.225
3	630960	4871.8	3001.01	5721.93	31.6329	716.241
4	501190	5501.39	2895.53	6216.86	27.7591	718.372
5	398110	6198.43	2765.82	6787.52	24.0471	725.256
6	316230	6714.79	2576.01	7191.96	20.9884	727.302
7	251190	7024.46	2300.81	7391.67	18.1358	733.986
8	199530	7422.46	2121.67	7719.74	15.9523	735.927
9	158490	7765.7	1937.39	8003.72	14.0082	737.983
10	125890	8044.5	1740.55	8230.64	12.2087	739.914
11	100000	8279.12	1553.1	8423.54	10.6248	741.95
12	79433	8480.25	1381.74	8592.08	9.25425	743.891
13	63096	8646.57	1221.9	8732.48	8.04358	745.912
14	50119	8786.59	1075.78	8852.2	6.98024	747.973
15	39811	8907.78	948.514	8958.14	6.07804	750.019
16	31623	9001.1	833.441	9039.6	5.29011	752.05
17	25119	9083.27	738.125	9113.22	4.64576	753.961
18	19953	9163.49	659.783	9187.21	4.11826	755.902
19	15849	9233.07	590.789	9251.95	3.66115	757.988
20	12589	9293.53	528.613	9308.55	3.25546	759.904
21	10000	9347.77	477.519	9359.95	2.92434	761.961
22	7943.3	9399.24	433.69	9409.24	2.64181	763.912
23	6309.6	9449.65	398.01	9458.03	2.41181	765.848
24	5011.9	9488.33	365.927	9495.38	2.20858	767.744
25	3981.1	9530.76	336.36	9536.69	2.02125	769.71
26	3162.3	9566.51	313.232	9571.64	1.87534	771.746
27	2511.9	9606.21	291.638	9610.64	1.73893	773.732
28	1995.3	9646.85	274.514	9650.75	1.62999	775.673
29	1584.9	9683.68	259.547	9687.16	1.5353	777.554
30	1258.9	9703.82	245.503	9706.93	1.44925	783.813
31	1000	9732.4	233.927	9735.21	1.37689	785.759
32	794.33	9765.86	222.174	9768.39	1.30326	787.84
33	630.96	9795.3	215.33	9797.67	1.25933	789.741
34	501.19	9820.3	207.277	9822.49	1.20916	791.797
35	398.11	9852.26	200.906	9854.31	1.16821	793.703
36	316.23	9876.52	196.54	9878.48	1.14002	795.604
37	251.19	9900.58	195.221	9902.5	1.12962	797.585
38	199.53	9931.16	194.627	9933.07	1.12272	799.556
39	158.49	9955.68	195.182	9957.59	1.12315	801.557
40	125.89	9977.55	199.6	9979.55	1.14604	803.708
41	100	9997.22	204.977	9999.32	1.17459	805.709
42	79.433	10030.6	208.29	10032.7	1.18961	807.775
43	63.096	10053.3	218.542	10055.7	1.24532	810.006
44	50.119	10060	257.177	10063.3	1.46441	812.197
45	39.811	10105.9	244.717	10108.8	1.38717	821.994
46	31.623	10133.9	258.251	10137.2	1.4598	824.255
47	25.119	10164.3	280.016	10168.1	1.57805	826.696
48	19.953	10200.9	306.001	10205.5	1.71821	829.182
49	15.849	10227.4	338.888	10233	1.89781	831.743
50	12.589	10275.9	376.425	10282.8	2.09791	834.364
51	10	10308.6	417.349	10317.1	2.31838	837.245
52	7.9433	10356	466.836	10366.5	2.58109	840.176
53	6.3096	10402.2	526.865	10415.5	2.89952	843.312
54	5.0119	10439.5	593.679	10456.4	3.25481	846.573
55	3.9811	10500.7	675.315	10522.4	3.67972	849.724
56	3.1623	10554.5	769.955	10582.6	4.17235	852.875
57	2.5119	10637.6	899.898	10675.5	4.8355	856.181
58	1.9953	10679.8	1057.22	10732	5.65346	859.507
59	1.5849	10775.3	1213.18	10843.4	6.42378	863.038
60	1.2589	10874.6	1465.37	10972.9	7.67446	866.554
61	1	10972.4	1687.69	11101.4	8.74427	872.787
62	0.79433	11099.1	1997.88	11277.4	10.2042	876.598
63	0.63096	11236.6	2346.06	11478.9	11.7933	880.774
64	0.50119	11356.5	2825.47	11702.7	13.9713	885.255
65	0.39811	11543.1	3396.49	12032.4	16.3962	890.171
66	0.31623	11714.9	4066.43	12400.6	19.1428	895.587
67	0.25119	12011.8	4931.44	12984.7	22.3206	901.653
68	0.19953	12305	5804.49	13605.3	25.2541	908.689
69	0.15849	12718.5	7007.89	14521.4	28.8547	916.585
70	0.12589	13062.4	8407.46	15534.2	32.7669	925.752
71	0.1	13421.9	10225.1	16873.1	37.301	936.718

File: Z_p35_1.txt
Index	Frequency (Hz)	Z' (Ω)	-Z'' (Ω)	Z (Ω)	-Phase (°)	Time (s)
1	1000000	2991.66	2467.34	3877.86	39.5138	142.98
2	794330	3403.18	2293.55	4103.9	33.9777	144.675
3	630960	3849.82	2184.35	4426.35	29.5702	146.22
4	501190	4278.99	2103.96	4768.28	26.1831	147.781
5	398110	4741.3	1966.63	5132.99	22.5281	154.041
6	316230	5082.94	1850.26	5409.22	20.0022	155.571
7	251190	5313.64	1600.87	5549.55	16.7662	159.971
8	199530	5588.42	1461.42	5776.34	14.6551	161.246
9	158490	5817.16	1316.53	5964.28	12.7522	162.561
10	125890	6008.99	1171.59	6122.14	11.0327	164.061
11	100000	6157.51	1031.99	6243.39	9.51423	165.591
12	79433	6289.74	907.009	6354.8	8.20575	167.001
13	63096	6387.99	791.7	6436.86	7.06497	168.471
14	50119	6476.76	691.206	6513.54	6.0916	169.806
15	39811	6546.55	599.257	6573.92	5.23016	171.231
16	31623	6598.96	519.923	6619.41	4.50495	172.616
17	25119	6647.88	458.975	6663.71	3.94948	173.966
18	19953	6696.68	406.456	6709	3.47331	175.451
19	15849	6730.7	360.255	6740.33	3.06378	176.861
20	12589	6768.8	322.624	6776.49	2.72884	178.281
21	10000	6796.34	292.091	6802.61	2.46093	179.691
22	7943.3	6829.1	264.565	6834.22	2.21858	181.201
23	6309.6	6857.25	242.653	6861.54	2.02665	182.671
24	5011.9	6884.7	223.698	6888.34	1.861	184.086
25	3981.1	6908.08	209.472	6911.25	1.73684	185.526
26	3162.3	6929.14	196.688	6931.94	1.62594	186.951
27	2511.9	6951.1	185.319	6953.57	1.52717	188.296
28	1995.3	6974.53	176.949	6976.77	1.45332	189.631
29	1584.9	6995.49	169.201	6997.54	1.38555	190.936
30	1258.9	7018.53	162.003	7020.4	1.32228	192.421
31	1000	7040.53	156.861	7042.27	1.27632	193.916
32	794.33	7059.64	151.896	7061.27	1.23259	195.531
33	630.96	7077.74	147.472	7079.28	1.19364	197.036
34	501.19	7099.85	144.976	7101.33	1.16979	198.521
35	398.11	7118.93	141.919	7120.34	1.14206	199.916
36	316.23	7137.98	140.103	7139.35	1.12444	201.132
37	251.19	7153.8	140.129	7155.18	1.12216	202.462
38	199.53	7174.03	140.368	7175.4	1.12092	203.852
39	158.49	7190.74	142.304	7192.15	1.13373	205.397
40	125.89	7215.91	145.45	7217.38	1.15475	206.927
41	100	7231.4	150.393	7232.96	1.19142	208.552
42	79.433	7252.37	155.513	7254.03	1.22841	210.162
43	63.096	7269.42	161.033	7271.2	1.26901	211.887
44	50.119	7284.73	164.356	7286.58	1.29247	213.552
45	39.811	7310.16	178.89	7312.34	1.40183	222.872
46	31.623	7330.03	191.207	7332.52	1.49424	224.757
47	25.119	7357.29	202.685	7360.08	1.57804	226.577
48	19.953	7378.8	220.349	7382.09	1.71049	228.507
49	15.849	7405.81	242.569	7409.78	1.87599	230.627
50	12.589	7431.15	267.423	7435.96	2.061	232.702
51	10	7457.33	296.297	7463.22	2.2753	235.082
52	7.9433	7486.14	333.274	7493.56	2.54905	237.487
53	6.3096	7523.12	372.988	7532.36	2.83834	239.927
54	5.0119	7561.01	420.809	7572.71	3.18552	242.592
55	3.9811	7597.97	477.494	7612.96	3.59602	245.072
56	3.1623	7643.16	546.624	7662.68	4.09071	247.812
57	2.5119	7689.17	628.898	7714.84	4.67582	250.572
58	1.9953	7738.96	736.202	7773.9	5.43416	253.287
59	1.5849	7808.88	826.536	7852.5	6.04202	256.123
60	1.2589	7867.65	995.799	7930.42	7.2135	259.123
61	1	7948.65	1165.93	8033.71	8.34481	264.588
62	0.79433	8042.05	1359.62	8156.18	9.59594	267.858
63	0.63096	8128.19	1608.84	8285.88	11.196	271.538
64	0.50119	8219.17	1902.98	8436.59	13.0359	275.723
65	0.39811	8343.55	2255.86	8643.13	15.1295	280.138
66	0.31623	8443.41	2709.17	8867.4	17.7894	285.023
67	0.25119	8650.67	3297.36	9257.79	20.8652	290.443
68	0.19953	8806.49	3984.88	9666.11	24.3464	296.708
69	0.15849	9011.59	4813.73	10216.7	28.1099	304.258
70	0.12589	9233.78	5722.11	10863	31.7862	312.859
71	0.1	9372.79	7056.91	11732.4	36.9766	323.129

File: Z_p35_2.txt
Index	Frequency (Hz)	Z' (Ω)	-Z'' (Ω)	Z (Ω)	-Phase (°)	Time (s)
1	1000000	3006.59	2465.03	3887.92	39.3476	470.917
2	794330	3393.12	2296.88	4097.43	34.095	472.447
3	630960	3853.63	2194.25	4434.55	29.6571	474.027
4	501190	4283.06	2103.09	4771.54	26.1523	475.692
5	398110	4747.3	1967.62	5138.91	22.5126	480.898
6	316230	5092.01	1826.81	5409.79	19.736	482.278
7	251190	5314.47	1601.58	5550.55	16.7709	486.608
8	199530	5587.79	1462.27	5775.95	14.6649	488.023
9	158490	5822.06	1316.7	5969.09	12.7435	489.343
10	125890	6009.03	1171.67	6122.19	11.0334	490.733
11	100000	6163.41	1034.34	6249.6	9.52654	492.248
12	79433	6292.78	907.663	6357.9	8.20767	493.723
13	63096	6394.24	792.916	6443.21	7.06887	495.278
14	50119	6476.9	691.536	6513.72	6.09436	496.823
15	39811	6554.67	601.61	6582.22	5.24411	498.348
16	31623	6610.49	522.381	6631.1	4.5183	499.913
17	25119	6657.57	460.463	6673.47	3.95649	501.418
18	19953	6698.19	406.804	6710.53	3.4755	502.798
19	15849	6738.72	360.331	6748.35	3.06079	504.168
20	12589	6774.35	321.864	6781.99	2.7202	505.473
21	10000	6805.09	292.642	6811.38	2.46239	506.908
22	7943.3	6837.08	265.223	6842.23	2.2215	508.458
23	6309.6	6864.16	243.217	6868.47	2.02931	509.953
24	5011.9	6889.7	223.933	6893.34	1.86161	511.498
25	3981.1	6915.3	208.417	6918.44	1.72629	513.083
26	3162.3	6934.23	195.328	6936.99	1.61352	514.608
27	2511.9	6957.72	185.715	6960.2	1.52897	516.878
28	1995.3	6980.69	177.255	6982.94	1.45455	518.938
29	1584.9	7000.98	169.234	7003.03	1.38474	520.313
30	1258.9	7024.51	161.199	7026.36	1.3146	521.678
31	1000	7046.99	156.612	7048.73	1.27313	523.083
32	794.33	7065.44	151.911	7067.07	1.2317	524.548
33	630.96	7084.09	147.451	7085.63	1.19241	525.903
34	501.19	7104.65	145.393	7106.13	1.17236	527.303
35	398.11	7123.75	142.021	7125.16	1.14211	528.608
36	316.23	7143.17	141.114	7144.57	1.13174	529.923
37	251.19	7160.48	139.262	7161.84	1.11419	531.338
38	199.53	7182.49	140.513	7183.87	1.12075	532.683
39	158.49	7199.46	143.53	7200.89	1.14211	533.998
40	125.89	7220.5	147.459	7222.01	1.16995	535.479
41	100	7237.78	150.355	7239.34	1.19007	536.799
42	79.433	7257.75	154.369	7259.39	1.21847	538.174
43	63.096	7278.59	162.112	7280.4	1.2759	539.704
44	50.119	7300.23	153.212	7301.84	1.2023	541.664
45	39.811	7320.07	178.921	7322.26	1.40017	551.534
46	31.623	7341.03	191.48	7343.53	1.49414	553.239
47	25.119	7361.99	203.693	7364.81	1.58486	554.844
48	19.953	7384.74	223.243	7388.12	1.73154	556.749
49	15.849	7415.81	245.141	7419.86	1.89331	558.724
50	12.589	7440.74	267.165	7445.53	2.05637	560.749
51	10	7465.61	297.576	7471.54	2.28257	563.144
52	7.9433	7496.94	330.275	7504.22	2.52251	565.534
53	6.3096	7529.1	372.624	7538.31	2.83333	567.934
54	5.0119	7567.93	422.822	7579.73	3.1978	570.579
55	3.9811	7604.84	477.206	7619.8	3.59062	573.029
56	3.1623	7646.29	545.518	7665.73	4.08081	575.889
57	2.5119	7686.12	625.678	7711.54	4.65382	578.789
58	1.9953	7745.65	722.863	7779.31	5.33169	581.419
59	1.5849	7796.19	853.7	7842.79	6.24912	584.259
60	1.2589	7911.02	1003.4	7974.4	7.22855	587.194
61	1	7950.84	1162.97	8035.44	8.32165	592.465
62	0.79433	8042.45	1370.04	8158.31	9.66762	595.63
63	0.63096	8137.34	1613.61	8295.78	11.2161	599.435
64	0.50119	8238.13	1898.66	8454.09	12.9784	603.255
65	0.39811	8341.6	2296.8	8652.03	15.3945	607.635
66	0.31623	8489.62	2721.87	8915.28	17.7764	612.42
67	0.25119	8600.7	3317.15	9218.22	21.0908	617.835
68	0.19953	8748.48	3981.2	9611.76	24.469	624.055
69	0.15849	8951.7	4824.75	10169.1	28.3236	631.455
70	0.12589	9271.87	5819.86	10947.1	32.1161	640.045
71	0.1	9397.66	6975.59	11703.6	36.5853	650.176

File: Z_p35_3.txt
Index	Frequency (Hz)	Z' (Ω)	-Z'' (Ω)	Z (Ω)	-Phase (°)	Time (s)
1	1000000	3003.71	2470.49	3889.16	39.4366	799.372
2	794330	3410.15	2294.27	4110.08	33.9317	801.543
3	630960	3855.25	2210.02	4443.77	29.8234	803.764
4	501190	4299.96	2101.73	4786.12	26.0484	806.18
5	398110	4749.04	1974.74	5143.25	22.5785	815.361
6	316230	5091.21	1834.35	5411.59	19.8139	817.487
7	251190	5323.72	1605	5560.39	16.777	825.056
8	199530	5603.55	1465.78	5792.09	14.659	827.257
9	158490	5833	1318.24	5980.1	12.7348	829.433
10	125890	6023.18	1176.14	6136.94	11.0491	831.604
11	100000	6176.52	1037.54	6263.06	9.53556	833.96
12	79433	6304.96	910.257	6370.33	8.21512	836.226
13	63096	6405.27	794.774	6454.39	7.07319	838.407
14	50119	6491.98	694.848	6529.06	6.10921	840.558
15	39811	6569.49	604.404	6597.23	5.25651	842.829
16	31623	6619.04	523.582	6639.71	4.52282	844.975
17	25119	6668.77	461.008	6684.68	3.95453	847.676
18	19953	6710.98	407.472	6723.34	3.47458	849.852
19	15849	6753.35	363.384	6763.12	3.08	852.053
20	12589	6787.81	323.794	6795.53	2.73106	854.154
21	10000	6818.85	292.882	6825.14	2.45945	856.305
22	7943.3	6848.7	264.555	6853.81	2.21215	858.501
23	6309.6	6876.63	243.273	6880.94	2.02609	860.652
24	5011.9	6903.07	224.989	6906.74	1.86675	862.858
25	3981.1	6928.62	209.218	6931.78	1.72959	865.079
26	3162.3	6950.44	196.224	6953.21	1.61714	867.24
27	2511.9	6973.32	185.48	6975.79	1.52363	869.372
28	1995.3	6997.4	176.854	6999.64	1.4478	871.578
29	1584.9	7019.03	169.588	7021.08	1.38406	873.734
30	1258.9	7040.19	162.466	7042.06	1.32197	876.255
31	1000	7060.03	156.955	7061.77	1.27356	878.536
32	794.33	7077.5	152.29	7079.14	1.23267	880.732
33	630.96	7100.34	148.318	7101.88	1.19667	882.913
34	501.19	7121.56	144.319	7123.03	1.16094	885.059
35	398.11	7142.65	142.071	7144.07	1.13949	887.195
36	316.23	7156.39	140.696	7157.77	1.1263	889.386
37	251.19	7181.57	140.602	7182.94	1.12161	891.582
38	199.53	7198.47	139.89	7199.83	1.11331	893.673
39	158.49	7213.43	143.139	7214.85	1.1368	895.769
40	125.89	7235.42	145.907	7236.89	1.15525	898.05
41	100	7250.34	151.041	7251.91	1.19343	900.161
42	79.433	7271.71	155.519	7273.38	1.22519	902.377
43	63.096	7292.18	159.19	7293.92	1.25058	905.173
44	50.119	7285.89	161.333	7287.68	1.2685	907.509
45	39.811	7335.05	179.92	7337.26	1.40512	917.41
46	31.623	7360.4	188.022	7362.8	1.46331	919.991
47	25.119	7379.14	204.694	7381.98	1.58895	922.412
48	19.953	7398.43	223.402	7401.8	1.72957	925.194
49	15.849	7434.4	240.548	7438.29	1.85322	927.95
50	12.589	7456.39	271.102	7461.32	2.08226	930.756
51	10	7484.93	296.401	7490.8	2.26771	933.837
52	7.9433	7517.63	334.29	7525.06	2.54612	937.193
53	6.3096	7551.44	371.844	7560.59	2.81905	945.009
54	5.0119	7580.69	419.964	7592.32	3.17089	948.935
55	3.9811	7625.93	479.073	7640.96	3.59469	952.181
56	3.1623	7653.81	539.055	7672.77	4.02867	955.397
57	2.5119	7713.9	634.63	7739.96	4.70319	958.768
58	1.9953	7752.55	737.353	7787.54	5.43311	962.364
59	1.5849	7830.14	837.64	7874.81	6.10607	965.99
60	1.2589	7912.27	1007.39	7976.14	7.2559	969.806
61	1	7965.45	1166.17	8050.36	8.32916	976.869
62	0.79433	8060.35	1372.82	8176.42	9.66575	980.985
63	0.63096	8156.66	1615.14	8315.04	11.2005	985.416
64	0.50119	8256.53	1911.61	8474.94	13.0359	990.187
65	0.39811	8369.08	2285.47	8675.54	15.2742	995.263
66	0.31623	8460.83	2755.52	8898.23	18.0394	1000.83
67	0.25119	8617.54	3325.83	9237.05	21.1035	1007.09
68	0.19953	8826.34	3926.79	9660.43	23.984	1014.18
69	0.15849	9056.74	4810.18	10254.9	27.9735	1022.3
70	0.12589	9299.61	5801.49	10960.8	31.9577	1031.65
71	0.1	9471.91	6953.89	11750.5	36.2846	1042.51

File: Z_p36_1.txt
Index	Frequency (Hz)	Z' (Ω)	-Z'' (Ω)	Z (Ω)	-Phase (°)	Time (s)
1	1000000	3413.06	2797.95	4413.34	39.3441	141.013
2	794330	3864.7	2530.8	4619.62	33.2189	142.418
3	630960	4364.45	2396.27	4979.01	28.7687	143.793
4	501190	4851.66	2288	5364.1	25.2482	145.303
5	398110	5358.93	2101.52	5756.26	21.4128	150.349
6	316230	5721.75	1942.49	6042.49	18.7519	151.659
7	251190	5950.2	1686.62	6184.62	15.8257	155.774
8	199530	6236.47	1534.52	6422.48	13.8234	157.039
9	158490	6475.22	1373.49	6619.29	11.9758	158.414
10	125890	6667.23	1221.16	6778.14	10.3792	159.704
11	100000	6822.78	1075.21	6906.98	8.95563	161.194
12	79433	6954.61	944.284	7018.42	7.73224	162.479
13	63096	7057.67	823.306	7105.53	6.65372	163.754
14	50119	7149	717.104	7184.87	5.72809	165.069
15	39811	7222.67	623.958	7249.57	4.93746	166.469
16	31623	7277.08	540.235	7297.1	4.24573	167.729
17	25119	7332.09	476.11	7347.54	3.71529	169.064
18	19953	7378.98	424.931	7391.2	3.29584	170.349
19	15849	7417.23	375.517	7426.73	2.89828	171.624
20	12589	7455.02	336.009	7462.59	2.58066	172.914
21	10000	7485.71	306.227	7491.98	2.34256	174.219
22	7943.3	7519.47	276.857	7524.57	2.1086	175.494
23	6309.6	7548.17	252.314	7552.39	1.91452	176.764
24	5011.9	7576.94	232.685	7580.51	1.75898	178.054
25	3981.1	7600.54	216.5	7603.63	1.63162	179.354
26	3162.3	7624.13	201.794	7626.8	1.51614	180.659
27	2511.9	7646.41	190.099	7648.78	1.42415	181.944
28	1995.3	7665.47	179.645	7667.57	1.34251	183.289
29	1584.9	7692.44	170.67	7694.33	1.271	184.564
30	1258.9	7712.33	164.045	7714.08	1.21852	185.824
31	1000	7736.14	156.217	7737.71	1.15683	187.109
32	794.33	7753.48	149.39	7754.92	1.10381	188.504
33	630.96	7772.93	145.828	7774.29	1.0748	189.814
34	501.19	7791.51	141.347	7792.79	1.0393	191.169
35	398.11	7808.66	137.329	7809.87	1.00754	192.344
36	316.23	7831.11	135.828	7832.28	0.993675	193.614
37	251.19	7846.96	133.206	7848.09	0.972531	194.984
38	199.53	7869.81	134.913	7870.97	0.982128	196.259
39	158.49	7884.14	135.521	7885.31	0.984766	197.679
40	125.89	7901.02	140.631	7902.27	1.01971	199.104
41	100	7921.59	144.846	7922.92	1.04753	200.404
42	79.433	7935.11	149.441	7936.52	1.07892	201.81
43	63.096	7955.17	154.127	7956.66	1.10994	203.335
44	50.119	8028.57	151.227	8029.99	1.0791	204.79
45	39.811	7990.98	174.262	7992.88	1.24927	214.05
46	31.623	8012.99	190.159	8015.24	1.35945	215.665
47	25.119	8032.39	203.541	8034.97	1.45157	217.23
48	19.953	8058.56	226.799	8061.76	1.6121	219.115
49	15.849	8085.77	249.931	8089.63	1.77045	220.995
50	12.589	8117.41	277.016	8122.14	1.95453	223.105
51	10	8143.41	309.945	8149.31	2.17967	225.38
52	7.9433	8166.63	349.27	8174.1	2.44893	227.625
53	6.3096	8204.16	394.492	8213.64	2.75291	229.925
54	5.0119	8241.6	449.647	8253.86	3.12286	232.305
55	3.9811	8279.54	516.59	8295.64	3.57026	234.71
56	3.1623	8322.59	587.993	8343.34	4.04124	237.235
57	2.5119	8374.3	683.867	8402.18	4.66856	239.84
58	1.9953	8423.43	796.567	8461.01	5.40215	242.49
59	1.5849	8518.6	973.008	8573.99	6.51617	245.285
60	1.2589	8516.89	1117.69	8589.92	7.47631	248.2
61	1	8612.98	1334.01	8715.67	8.80421	253.575
62	0.79433	8702.56	1589.84	8846.59	10.353	256.831
63	0.63096	8805.91	1876.61	9003.65	12.0303	260.371
64	0.50119	8896.88	2268.29	9181.49	14.303	268.841
65	0.39811	9001.03	2726.58	9404.93	16.8526	281.311
66	0.31623	9151.56	3293.76	9726.25	19.7944	287.201
67	0.25119	9318.48	3991.87	10137.5	23.1894	296.611
68	0.19953	9445.22	4908.24	10644.4	27.4588	305.401
69	0.15849	9675.32	5900.61	11332.7	31.3774	314.997
70	0.12589	9970.97	7151.57	12270.5	35.6496	323.742
71	0.1	10145.2	8798.78	13429.2	40.9346	334.747