Folder: Streamlit_cement_impedance/data/20200504 (part 3)

File: Z_p37_2.txt
Index	Frequency (Hz)	Z' (Ω)	-Z'' (Ω)	Z (Ω)	-Phase (°)	Time (s)
1	1000000	3363.08	2364.71	4111.23	35.1125	307.239
2	794330	3677.97	2125.57	4248	30.0245	308.679
3	630960	4078.46	1970	4529.32	25.7818	310.094
4	501190	4446.65	1822.85	4805.78	22.2906	311.709
5	398110	4849.73	1694.58	5137.26	19.2602	313.109
6	316230	5141.58	1555.42	5371.7	16.8315	314.664
7	251190	5296.01	1336.52	5462.05	14.1636	315.964
8	199530	5524.87	1218.82	5657.71	12.4405	317.359
9	158490	5713.97	1098.35	5818.58	10.8808	318.754
10	125890	5866.92	980.723	5948.32	9.48991	320.1
11	100000	5993.74	870.574	6056.63	8.26426	321.55
12	79433	6102.83	771.086	6151.35	7.2011	322.905
13	63096	6191.57	681.116	6228.92	6.2777	324.375
14	50119	6267.04	601.003	6295.79	5.47786	325.82
15	39811	6330.02	529.538	6352.13	4.78195	327.13
16	31623	6382.76	466.791	6399.81	4.18277	328.5
17	25119	6430.96	417.709	6444.51	3.7163	329.815
18	19953	6473.95	374.211	6484.75	3.30816	331.125
19	15849	6509.86	337.384	6518.59	2.96679	332.44
20	12589	6545.47	306.732	6552.66	2.68301	333.785
21	10000	6575.94	280.692	6581.92	2.44417	335.135
22	7943.3	6606.83	259.967	6611.94	2.25333	336.445
23	6309.6	6637.43	242.698	6641.87	2.09409	337.715
24	5011.9	6661.73	228.485	6665.64	1.96437	339
25	3981.1	6689.62	216.426	6693.12	1.85301	340.405
26	3162.3	6716.05	206.746	6719.23	1.76323	341.78
27	2511.9	6739.35	199.662	6742.31	1.69696	343.06
28	1995.3	6761.11	194.179	6763.9	1.64508	344.375
29	1584.9	6787.54	190.424	6790.21	1.60701	345.6
30	1258.9	6814.32	187.666	6816.91	1.57752	346.92
31	1000	6835.02	187.317	6837.58	1.56983	348.265
32	794.33	6857.74	187.841	6860.31	1.569	349.61
33	630.96	6885.13	189.921	6887.74	1.58006	350.915
34	501.19	6907.31	194.416	6910.04	1.61225	352.35
35	398.11	6932.94	200.439	6935.84	1.65602	353.75
36	316.23	6956.72	208.398	6959.84	1.71586	355.115
37	251.19	6983.5	217.612	6986.89	1.78481	356.445
38	199.53	7009.55	230.771	7013.35	1.88563	357.695
39	158.49	7036.99	246.421	7041.3	2.00556	359.14
40	125.89	7066.42	264.507	7071.36	2.14367	360.55
41	100	7094.85	286.172	7100.62	2.30978	361.99
42	79.433	7133.58	311.262	7140.37	2.49842	363.315
43	63.096	7170.4	340.345	7178.48	2.71752	364.8
44	50.119	7212.53	373.547	7222.2	2.96478	366.195
45	39.811	7261.14	409.912	7272.7	3.23108	375.406
46	31.623	7312.34	451.254	7326.25	3.53132	377.131
47	25.119	7370.2	496.238	7386.89	3.85193	378.786
48	19.953	7436.43	549.637	7456.72	4.22712	380.706
49	15.849	7506.26	604.769	7530.58	4.6063	382.666
50	12.589	7579.07	666.466	7608.31	5.02538	384.711
51	10	7658.15	735.034	7693.34	5.4825	387.041
52	7.9433	7750.74	813.196	7793.28	5.98947	389.436
53	6.3096	7847.68	902.9	7899.45	6.5632	391.846
54	5.0119	7941.15	1003.12	8004.26	7.19942	394.271
55	3.9811	8051.47	1120.49	8129.07	7.92274	396.666
56	3.1623	8167.12	1254.94	8262.98	8.73561	399.236
57	2.5119	8289.15	1421.4	8410.14	9.7303	401.811
58	1.9953	8419.76	1617.73	8573.76	10.876	404.526
59	1.5849	8560.53	1843.81	8756.84	12.1549	407.266
60	1.2589	8710.48	2131.89	8967.57	13.7528	410.071
61	1	8888.63	2474.72	9226.7	15.558	415.111
62	0.79433	9080.81	2882.37	9527.28	17.6102	418.226
63	0.63096	9309.88	3368.03	9900.37	19.8886	421.866
64	0.50119	9522.62	3953.88	10310.8	22.5487	425.751
65	0.39811	9809.88	4697.52	10876.6	25.5877	429.927
66	0.31623	10097.3	5609.37	11550.7	29.0536	434.612
67	0.25119	10535.8	6655.85	12462.1	32.2821	439.962
68	0.19953	11029.5	7976.75	13611.7	35.8753	446.222
69	0.15849	11561.7	9495.66	14961.3	39.3963	453.577
70	0.12589	12101.6	11357.2	16596.3	43.1825	462.132
71	0.1	12985.5	13762.1	18921.4	46.6631	472.282

File: Z_p37_3.txt
Index	Frequency (Hz)	Z' (Ω)	-Z'' (Ω)	Z (Ω)	-Phase (°)	Time (s)
1	1000000	3316.22	2360.7	4070.65	35.4458	570.456
2	794330	3687.5	2126.06	4256.49	29.966	572.812
3	630960	4080.24	1962.7	4527.75	25.6887	575.003
4	501190	4438.6	1851.38	4809.24	22.6414	577.269
5	398110	4845.01	1689.11	5131	19.22	581.286
6	316230	5136.4	1550.61	5365.36	16.7983	583.492
7	251190	5296.02	1335.3	5461.77	14.1512	587.309
8	199530	5521.86	1216.16	5654.2	12.4208	589.46
9	158490	5711.09	1097.91	5815.67	10.8819	591.646
10	125890	5865.61	979.041	5946.75	9.47601	593.777
11	100000	5991.44	869.522	6054.21	8.25753	595.888
12	79433	6098.26	770.664	6146.76	7.20254	597.914
13	63096	6186.14	680.388	6223.45	6.27649	600.056
14	50119	6262.79	599.909	6291.46	5.47164	602.277
15	39811	6328.88	529.603	6351	4.78339	604.298
16	31623	6382.41	466.651	6399.45	4.18175	606.324
17	25119	6423	416.366	6436.48	3.70897	608.5
18	19953	6471.83	373.92	6482.62	3.30668	612.362
19	15849	6507.76	336.962	6516.48	2.96404	614.348
20	12589	6540.23	306.213	6547.4	2.68063	616.414
21	10000	6569.26	280.617	6575.25	2.446	618.445
22	7943.3	6600.33	259.25	6605.42	2.24932	622.147
23	6309.6	6629.8	241.72	6634.21	2.08806	624.178
24	5011.9	6657.92	228.007	6661.82	1.96138	626.409
25	3981.1	6683.25	216.139	6686.75	1.85232	628.58
26	3162.3	6711.29	206.968	6714.48	1.76637	630.721
27	2511.9	6735.85	199.107	6738.79	1.69313	633.032
28	1995.3	6757.93	193.627	6760.71	1.64118	635.163
29	1584.9	6783.7	190.191	6786.37	1.60595	637.494
30	1258.9	6809.47	187.677	6812.06	1.57874	639.45
31	1000	6829.76	186.841	6832.32	1.56704	641.561
32	794.33	6852.61	187.552	6855.17	1.56776	643.757
33	630.96	6876.52	189.656	6879.13	1.57983	645.953
34	501.19	6904.91	193.585	6907.62	1.60591	648.174
35	398.11	6929.1	199.738	6931.98	1.65115	650.2
36	316.23	6951.93	207.563	6955.03	1.71017	652.321
37	251.19	6977.89	217.741	6981.29	1.7873	654.503
38	199.53	7003.86	229.797	7007.63	1.87921	656.579
39	158.49	7028.9	245.624	7033.19	2.00138	658.665
40	125.89	7061.06	263.744	7065.98	2.13912	660.811
41	100	7089.22	284.918	7094.94	2.30149	662.927
42	79.433	7127.57	309.763	7134.29	2.4885	665.088
43	63.096	7163.59	338.459	7171.58	2.70505	667.399
44	50.119	7203.96	370.899	7213.51	2.94729	669.655
45	39.811	7257.02	407.598	7268.46	3.2147	679.656
46	31.623	7306.61	447.893	7320.32	3.50783	681.992
47	25.119	7365.77	493.733	7382.3	3.83484	684.358
48	19.953	7425.47	545.995	7445.51	4.20539	686.929
49	15.849	7496.35	600.87	7520.39	4.58274	689.625
50	12.589	7571.08	664.143	7600.16	5.01321	692.461
51	10	7651.88	731.194	7686.74	5.45846	695.502
52	7.9433	7735.49	808.791	7777.66	5.96892	698.613
53	6.3096	7835.15	899.548	7886.62	6.54941	701.649
54	5.0119	7934.38	997.009	7996.78	7.16207	704.815
55	3.9811	8037.27	1113.72	8114.07	7.88921	708.137
56	3.1623	8153.01	1250	8248.27	8.71658	711.538
57	2.5119	8273.71	1411.66	8393.27	9.68259	714.874
58	1.9953	8402.36	1602.69	8553.84	10.799	718.225
59	1.5849	8548.63	1840.04	8744.42	12.1473	721.706
60	1.2589	8691.46	2119.48	8946.16	13.7045	725.312
61	1	8869.1	2457.57	9203.29	15.4877	731.884
62	0.79433	9068.79	2855.09	9507.6	17.4754	735.805
63	0.63096	9267.52	3363.29	9858.94	19.9464	740.041
64	0.50119	9518.94	3943.24	10303.4	22.5019	744.587
65	0.39811	9785.87	4667.5	10842	25.4994	749.558
66	0.31623	10087.4	5608.74	11541.8	29.0748	755.359
67	0.25119	10485.5	6701.38	12444.1	32.583	761.626
68	0.19953	10949.7	7888.67	13495.5	35.7706	768.597
69	0.15849	11549.8	9460	14929.5	39.3195	776.638
70	0.12589	12180.9	11279.7	16601.4	42.8002	785.904
71	0.1	12801	13542.7	18635.2	46.6127	796.87

File: Z_p38_1.txt
Index	Frequency (Hz)	Z' (Ω)	-Z'' (Ω)	Z (Ω)	-Phase (°)	Time (s)
1	1000000	3078.26	2049.97	3698.39	33.6617	60.7749
2	794330	3351.21	1837.63	3821.98	28.7381	62.1849
3	630960	3676.13	1693.84	4047.59	24.7387	63.64
4	501190	3988.2	1579.94	4289.75	21.6112	65.24
5	398110	4315.17	1441.21	4549.48	18.4687	66.705
6	316230	4558.12	1317.57	4744.72	16.1224	68.095
7	251190	4685.38	1124	4818.31	13.4901	69.3801
8	199530	4876.41	1021.1	4982.17	11.8266	70.8251
9	158490	5029.94	915.034	5112.49	10.3103	72.2551
10	125890	5158.1	814.272	5221.98	8.97083	73.6401
11	100000	5265.58	720.531	5314.65	7.79185	75.0502
12	79433	5350.79	635.366	5388.38	6.77173	76.3302
13	63096	5421.58	558.956	5450.32	5.8863	77.6952
14	50119	5484.43	491.984	5506.45	5.12603	79.0252
15	39811	5536.3	432.242	5553.15	4.46426	80.2853
16	31623	5577.21	379.527	5590.11	3.89295	81.6303
17	25119	5615.78	337.791	5625.93	3.44221	82.9453
18	19953	5645.53	301.974	5653.6	3.06178	84.2403
19	15849	5680.41	271.818	5686.91	2.73962	85.5704
20	12589	5707.53	245.951	5712.82	2.46749	86.9304
21	10000	5731.11	223.922	5735.48	2.23748	88.2104
22	7943.3	5754.34	205.972	5758.03	2.04998	89.5304
23	6309.6	5777.42	190.307	5780.55	1.88663	90.8655
24	5011.9	5797.17	178.034	5799.9	1.75903	92.2855
25	3981.1	5819.72	166.926	5822.11	1.64296	93.6105
26	3162.3	5839.62	157.167	5841.74	1.54168	94.8905
27	2511.9	5861.14	150.105	5863.06	1.46703	96.2406
28	1995.3	5876.43	143.425	5878.18	1.39814	97.5206
29	1584.9	5895.31	137.826	5896.92	1.33927	98.7806
30	1258.9	5911.34	134.179	5912.87	1.30031	100.106
31	1000	5930.97	129.436	5932.38	1.25021	101.561
32	794.33	5945.75	126.944	5947.1	1.22311	103.056
33	630.96	5964.33	125.361	5965.65	1.20409	104.451
34	501.19	5979.11	124.374	5980.4	1.19166	105.856
35	398.11	5997.07	124.685	5998.37	1.19106	107.231
36	316.23	6012.21	126.169	6013.54	1.2022	108.701
37	251.19	6026.05	128.69	6027.43	1.2234	110.076
38	199.53	6044.13	133.123	6045.6	1.26174	111.381
39	158.49	6058.75	138.306	6060.33	1.30769	112.696
40	125.89	6073.02	144.67	6074.75	1.36462	114.131
41	100	6092.85	152.537	6094.76	1.43412	115.511
42	79.433	6107.81	161.782	6109.95	1.51728	116.966
43	63.096	6132.25	173.501	6134.7	1.62065	118.411
44	50.119	6152.88	185.984	6155.69	1.73136	119.871
45	39.811	6175.67	200.434	6178.92	1.8589	129.096
46	31.623	6201.65	217.612	6205.47	2.00965	130.751
47	25.119	6227.95	237.228	6232.46	2.18139	132.401
48	19.953	6254.95	261.623	6260.42	2.39509	134.331
49	15.849	6288.91	286.359	6295.43	2.6071	136.341
50	12.589	6320.44	314.724	6328.27	2.85067	138.341
51	10	6357.22	349.799	6366.84	3.14946	140.661
52	7.9433	6391.5	386.525	6403.17	3.46074	143.001
53	6.3096	6430.38	432.629	6444.92	3.849	145.386
54	5.0119	6469.45	487.554	6487.8	4.30981	147.827
55	3.9811	6514.36	552.292	6537.73	4.84598	150.312
56	3.1623	6557.76	633.958	6588.34	5.52179	153.057
57	2.5119	6606.64	732.891	6647.17	6.33008	155.602
58	1.9953	6657.12	853.446	6711.61	7.30549	158.262
59	1.5849	6719.49	999.413	6793.4	8.45979	161.022
60	1.2589	6767.21	1179.55	6869.25	9.88751	163.887
61	1	6846.11	1413.45	6990.5	11.6654	167.177
62	0.79433	6934.18	1668.23	7132.02	13.5272	170.412
63	0.63096	7033.36	2009.28	7314.74	15.9435	173.942
64	0.50119	7128.34	2400.21	7521.58	18.6091	177.777
65	0.39811	7262.82	2926.57	7830.28	21.9471	182.132
66	0.31623	7419	3522.45	8212.75	25.3978	186.997
67	0.25119	7580.17	4321.53	8725.51	29.6879	192.462
68	0.19953	7785.91	5216.2	9371.72	33.8203	198.792
69	0.15849	8062.04	6346.18	10260.1	38.2087	206.143
70	0.12589	8487.23	7694.76	11456.1	42.1963	214.728
71	0.1	8792.85	9238.73	12754.1	46.4165	224.968

File: Z_p38_2.txt
Index	Frequency (Hz)	Z' (Ω)	-Z'' (Ω)	Z (Ω)	-Phase (°)	Time (s)
1	1000000	3077.55	2052.83	3699.38	33.7047	353.838
2	794330	3351.86	1839.66	3823.52	28.76	355.208
3	630960	3687.79	1695.15	4058.74	24.6866	356.603
4	501190	3984.26	1576.97	4285	21.5936	358.148
5	398110	4317.03	1440.19	4550.93	18.4491	359.578
6	316230	4563.34	1318.25	4749.93	16.1129	360.973
7	251190	4684.4	1123.36	4817.21	13.4853	362.263
8	199530	4878.46	1020.52	4984.05	11.8152	363.703
9	158490	5034.08	915.622	5116.67	10.3085	365.123
10	125890	5160.25	813.693	5224.01	8.96089	366.438
11	100000	5263.16	719.605	5312.12	7.78549	367.858
12	79433	5353.79	635.347	5391.36	6.76777	369.153
13	63096	5425.61	559.193	5454.35	5.88444	370.538
14	50119	5485.8	491.844	5507.81	5.1233	371.973
15	39811	5538.33	432.078	5555.16	4.46095	373.289
16	31623	5577.83	379.483	5590.73	3.89207	374.574
17	25119	5614.76	337.521	5624.9	3.44008	375.854
18	19953	5649.1	302.398	5657.19	3.06413	377.174
19	15849	5677.92	271.624	5684.42	2.73886	378.509
20	12589	5707.14	245.561	5712.42	2.46374	379.824
21	10000	5732.86	223.836	5737.23	2.23594	381.144
22	7943.3	5753.62	205.841	5757.3	2.04894	382.464
23	6309.6	5778.95	190.382	5782.09	1.88688	383.754
24	5011.9	5799.82	177.419	5802.53	1.75216	385.119
25	3981.1	5820.46	166.477	5822.84	1.63833	386.399
26	3162.3	5840.29	157.123	5842.4	1.54108	387.694
27	2511.9	5859.91	149.764	5861.82	1.46401	389.029
28	1995.3	5879.3	142.833	5881.03	1.39168	390.309
29	1584.9	5897.03	137.41	5898.63	1.33484	391.504
30	1258.9	5913	133.28	5914.5	1.29124	392.819
31	1000	5931.56	129.339	5932.97	1.24915	394.159
32	794.33	5949.7	126.312	5951.04	1.21621	395.564
33	630.96	5964.19	124.472	5965.48	1.19558	396.864
34	501.19	5980.63	123.842	5981.91	1.18627	398.184
35	398.11	5995.23	123.306	5996.49	1.17826	399.484
36	316.23	6009.99	125.03	6011.29	1.19179	400.759
37	251.19	6026.83	127.428	6028.17	1.21125	402.129
38	199.53	6042.51	130.873	6043.93	1.24076	403.499
39	158.49	6058.52	136.255	6060.06	1.28836	404.854
40	125.89	6072.86	142.5	6074.54	1.3442	406.229
41	100	6089.31	149.726	6091.15	1.40852	407.614
42	79.433	6110.59	159.35	6112.67	1.4938	409.029
43	63.096	6128.04	169.693	6130.39	1.58619	410.489
44	50.119	6151.3	182.501	6154.01	1.69939	411.839
45	39.811	6171.31	197.611	6174.47	1.83403	421.029
46	31.623	6199.61	213.759	6203.3	1.97475	422.664
47	25.119	6224.41	231.304	6228.71	2.12818	424.254
48	19.953	6250.52	254.937	6255.71	2.33561	426.154
49	15.849	6282.76	280.422	6289.01	2.55562	428.12
50	12.589	6314.41	312.109	6322.12	2.82971	430.1
51	10	6349.24	342.635	6358.48	3.08895	432.445
52	7.9433	6386.64	380.064	6397.94	3.40562	434.77
53	6.3096	6422.38	425.143	6436.44	3.78729	437.075
54	5.0119	6460.44	479.124	6478.18	4.24145	439.515
55	3.9811	6499.81	543.542	6522.5	4.7802	441.985
56	3.1623	6547.13	622.925	6576.7	5.43503	444.455
57	2.5119	6590.05	718.599	6629.12	6.22312	447.01
58	1.9953	6637.2	840.985	6690.27	7.22134	449.695
59	1.5849	6696.74	986.156	6768.96	8.37712	452.67
60	1.2589	6755.1	1169.43	6855.58	9.82162	455.49
61	1	6827.93	1387.81	6967.54	11.4892	458.705
62	0.79433	6918.27	1661.09	7114.9	13.5013	461.93
63	0.63096	6991.21	1974.25	7264.62	15.7692	465.365
64	0.50119	7101.81	2397.76	7495.66	18.656	469.21
65	0.39811	7205.96	2901.87	7768.31	21.9348	473.425
66	0.31623	7399.05	3514.98	8191.52	25.4104	478.15
67	0.25119	7536.34	4260.61	8657.32	29.4813	483.576
68	0.19953	7756.96	5131.42	9300.64	33.4856	489.861
69	0.15849	8017.26	6261.19	10172.5	37.9885	497.151
70	0.12589	8421.57	7647.02	11375.4	42.2403	505.686
71	0.1	8785.95	9144.25	12681.1	46.1448	515.861

File: Z_p38_3.txt
Index	Frequency (Hz)	Z' (Ω)	-Z'' (Ω)	Z (Ω)	-Phase (°)	Time (s)
1	1000000	3076.42	2050.47	3697.13	33.6839	663.945
2	794330	3352.18	1838.59	3823.29	28.7438	666.036
3	630960	3676.3	1692.13	4047.04	24.7157	668.212
4	501190	3988.53	1567.41	4285.46	21.4537	670.463
5	398110	4316.52	1442.27	4551.1	18.476	672.734
6	316230	4558.88	1316.82	4745.25	16.1112	674.915
7	251190	4685.41	1122.45	4817.98	13.4721	678.767
8	199530	4880.43	1019.61	4985.8	11.8004	680.893
9	158490	5033.9	914.723	5116.33	10.299	683.099
10	125890	5160.25	814.185	5224.09	8.96622	685.215
11	100000	5262.74	719.532	5311.7	7.78531	687.366
12	79433	5351.72	634.733	5389.23	6.76388	689.422
13	63096	5424.09	559.148	5452.84	5.8856	691.593
14	50119	5484.43	491.473	5506.41	5.12073	693.859
15	39811	5538.83	432.085	5555.65	4.46062	695.955
16	31623	5579.4	379.446	5592.29	3.8906	698.071
17	25119	5615.14	337.463	5625.27	3.43927	700.162
18	19953	5646.8	301.783	5654.86	3.05916	702.278
19	15849	5679.39	271.357	5685.87	2.73547	704.419
20	12589	5705.48	245.37	5710.76	2.46255	706.52
21	10000	5732.56	223.151	5736.91	2.22922	708.667
22	7943.3	5756.44	205.709	5760.12	2.04662	710.763
23	6309.6	5778.62	190.559	5781.76	1.88873	712.864
24	5011.9	5798.23	177.054	5800.93	1.74903	715.015
25	3981.1	5817.54	166.163	5819.92	1.63606	717.086
26	3162.3	5839.15	156.918	5841.26	1.53937	719.222
27	2511.9	5857.9	149.557	5859.81	1.46249	721.423
28	1995.3	5877	142.661	5878.73	1.39055	723.539
29	1584.9	5897	137.352	5898.6	1.33428	725.625
30	1258.9	5912.59	132.078	5914.06	1.27969	727.756
31	1000	5928.78	128.76	5930.18	1.24414	729.872
32	794.33	5948.28	126.06	5949.62	1.21407	731.963
33	630.96	5963.91	124.065	5965.2	1.19173	734.004
34	501.19	5979.32	122.93	5980.58	1.17779	736.175
35	398.11	5996.52	122.637	5997.78	1.17161	738.296
36	316.23	6010.26	123.791	6011.53	1.17993	740.427
37	251.19	6026.27	126.802	6027.61	1.20542	742.588
38	199.53	6044.27	129.739	6045.66	1.22966	744.664
39	158.49	6059.62	134.68	6061.12	1.27324	746.745
40	125.89	6073.89	140.925	6075.52	1.32913	748.941
41	100	6088.68	148.08	6090.48	1.39319	751.142
42	79.433	6107.7	157.342	6109.73	1.47568	753.443
43	63.096	6125.52	168.537	6127.84	1.57603	755.684
44	50.119	6148.69	181.101	6151.35	1.68708	757.835
45	39.811	6172.19	195.215	6175.27	1.81156	767.807
46	31.623	6196.27	211.401	6199.88	1.95403	770.273
47	25.119	6220.43	229.57	6224.67	2.11359	772.604
48	19.953	6248.42	252.861	6253.53	2.31738	775.26
49	15.849	6278.81	276.985	6284.92	2.52592	777.966
50	12.589	6310.12	304.122	6317.45	2.75929	780.692
51	10	6341.79	337.051	6350.74	3.04227	783.793
52	7.9433	6379.47	374.89	6390.47	3.36312	786.909
53	6.3096	6414.51	421.162	6428.32	3.75652	790.08
54	5.0119	6454.93	472.368	6472.2	4.18541	793.306
55	3.9811	6495.45	538.121	6517.7	4.73591	796.487
56	3.1623	6541.58	616.01	6570.52	5.37959	799.673
57	2.5119	6581.41	710.375	6619.63	6.16046	803.039
58	1.9953	6631.4	834.401	6683.68	7.1716	806.65
59	1.5849	6695.79	975.896	6766.53	8.29234	810.231
60	1.2589	6746.01	1152.11	6843.68	9.69167	813.722
61	1	6815.64	1377.88	6953.52	11.4292	817.694
62	0.79433	6909.26	1632.82	7099.58	13.2964	821.565
63	0.63096	6980.39	1961.68	7250.79	15.6968	825.901
64	0.50119	7096.76	2375.58	7483.81	18.5075	830.477
65	0.39811	7220.4	2850.58	7762.73	21.5439	835.308
66	0.31623	7344.11	3496.93	8134.16	25.4617	841.019
67	0.25119	7562.47	4243.8	8671.84	29.2997	847.105
68	0.19953	7741.64	5081.73	9260.5	33.2815	854.076
69	0.15849	8063.4	6157.93	10145.9	37.3686	862.082
70	0.12589	8363.99	7468.19	11212.9	41.7616	871.324
71	0.1	8693.45	9166.79	12633.5	46.5181	882.16

File: Z_p39_1.txt
Index	Frequency (Hz)	Z' (Ω)	-Z'' (Ω)	Z (Ω)	-Phase (°)	Time (s)
1	1000000	1470.66	644.429	1605.66	23.6625	35.1684
2	794330	1538.66	587.191	1646.89	20.8881	36.7035
3	630960	1624.82	535.296	1710.72	18.2345	38.3035
4	501190	1708.24	486.408	1776.15	15.8938	39.8885
5	398110	1774.36	425.707	1824.71	13.4915	41.3835
6	316230	1843.06	379.303	1881.68	11.6292	42.7436
7	251190	1865.62	311.282	1891.41	9.47265	45.2236
8	199530	1918.98	278.04	1939.02	8.24417	46.5736
9	158490	1959.43	245.561	1974.76	7.1432	48.1337
10	125890	1992.38	215.878	2004.04	6.184	49.5737
11	100000	2017.4	189.245	2026.26	5.359	50.9137
12	79433	2039.49	166.609	2046.28	4.67021	52.3188
13	63096	2055.48	146.947	2060.73	4.08913	53.6438
14	50119	2070.13	130.508	2074.24	3.60733	54.9838
15	39811	2083.3	116.895	2086.58	3.21153	56.3538
16	31623	2094.83	105.642	2097.49	2.88698	57.6988
17	25119	2104.78	97.2229	2107.02	2.6447	59.0789
18	19953	2112.56	90.9456	2114.51	2.46506	60.4589
19	15849	2123	86.1784	2124.75	2.32452	61.9139
20	12589	2131.74	82.8915	2133.35	2.2268	63.339
21	10000	2140.51	80.9181	2142.04	2.16493	64.784
22	7943.3	2150.46	80.1552	2151.96	2.13462	66.109
23	6309.6	2158.61	80.2632	2160.1	2.12944	67.464
24	5011.9	2169.19	81.4014	2170.72	2.14908	68.8241
25	3981.1	2178.08	83.3121	2179.68	2.19051	70.1041
26	3162.3	2188.34	85.8882	2190.03	2.24759	71.4091
27	2511.9	2198.53	89.3045	2200.34	2.32608	72.7791
28	1995.3	2209.76	93.5826	2211.74	2.42501	74.2542
29	1584.9	2221.88	98.8365	2224.07	2.54703	75.6742
30	1258.9	2235.2	105.39	2237.68	2.69952	76.9392
31	1000	2247.48	112.225	2250.28	2.85861	78.2242
32	794.33	2262.63	120.686	2265.85	3.05321	79.6443
33	630.96	2278.12	130.758	2281.87	3.28504	81.1243
34	501.19	2293.84	142.001	2298.23	3.5424	82.5943
35	398.11	2311.49	155.052	2316.68	3.83758	83.8293
36	316.23	2331.08	169.809	2337.26	4.1664	85.1244
37	251.19	2351.6	186.566	2358.99	4.53611	86.5294
38	199.53	2374.96	205.775	2383.85	4.95194	87.8244
39	158.49	2400.58	227.225	2411.31	5.40718	89.2144
40	125.89	2428.5	251.471	2441.49	5.91188	90.6345
41	100	2459.54	278.514	2475.26	6.46055	92.0195
42	79.433	2493.77	308.65	2512.8	7.05554	93.4795
43	63.096	2531.99	342.659	2555.07	7.70713	94.9945
44	50.119	2574.85	382.148	2603.05	8.44197	105.015
45	39.811	2621.57	423.672	2655.58	9.1802	114.085
46	31.623	2674.47	471.568	2715.73	9.99974	115.74
47	25.119	2733.63	524.84	2783.56	10.8682	117.35
48	19.953	2798.85	586.411	2859.63	11.8333	119.285
49	15.849	2870.67	652.982	2944	12.8148	121.22
50	12.589	2952.73	728.111	3041.18	13.8522	123.22
51	10	3043.4	811.433	3149.72	14.9289	125.685
52	7.9433	3141.59	904.355	3269.17	16.0593	128.045
53	6.3096	3250.59	1008.22	3403.35	17.232	130.455
54	5.0119	3371.53	1125.71	3554.49	18.4636	133.06
55	3.9811	3503.08	1257.27	3721.87	19.7433	135.53
56	3.1623	3647.07	1407.01	3909.07	21.0962	138.065
57	2.5119	3807.48	1580.38	4122.44	22.542	140.79
58	1.9953	3978.29	1777.07	4357.15	24.07	143.475
59	1.5849	4169.28	2007.86	4627.56	25.7147	147.861
60	1.2589	4380.54	2272.91	4935.1	27.4232	150.631
61	1	4608.52	2584.94	5283.97	29.2882	155.761
62	0.79433	4872.69	2949.14	5695.66	31.1839	159.106
63	0.63096	5152.35	3376.89	6160.36	33.2411	162.701
64	0.50119	5468.52	3890.07	6710.99	35.4264	166.626
65	0.39811	5824.73	4478.05	7347.14	37.5531	171.051
66	0.31623	6229.08	5201.68	8115.35	39.864	176.026
67	0.25119	6735.88	6029.03	9039.98	41.8305	181.421
68	0.19953	7299.53	7041.38	10142.2	43.9687	187.791
69	0.15849	7936.29	8197.9	11410.1	45.929	195.226
70	0.12589	8600.97	9561.95	12861.1	48.0286	203.827
71	0.1	9491.9	11294.6	14753.4	49.9566	214.037

File: Z_p39_2.txt
Index	Frequency (Hz)	Z' (Ω)	-Z'' (Ω)	Z (Ω)	-Phase (°)	Time (s)
1	1000000	1470.36	643.143	1604.87	23.6248	297.924
2	794330	1536.84	586.302	1644.88	20.8818	299.464
3	630960	1625.37	534.467	1710.98	18.2024	301.079
4	501190	1708.53	484.798	1775.98	15.8414	302.799
5	398110	1773.22	424.548	1823.34	13.4644	304.344
6	316230	1841.67	378.763	1880.21	11.6216	305.929
7	251190	1865.48	310.711	1891.18	9.45628	308.389
8	199530	1918.2	279.622	1938.48	8.29375	309.794
9	158490	1958.63	244.757	1973.87	7.12292	311.344
10	125890	1990.19	215.402	2001.81	6.1772	312.754
11	100000	2015.35	188.887	2024.18	5.35437	314.314
12	79433	2036.8	166.18	2043.57	4.66436	315.754
13	63096	2053.62	146.769	2058.86	4.08789	317.299
14	50119	2068.5	130.319	2072.6	3.60498	318.66
15	39811	2081.71	116.729	2084.98	3.20942	319.995
16	31623	2091.49	105.295	2094.14	2.8821	321.46
17	25119	2101.91	97.2623	2104.16	2.64937	322.85
18	19953	2111.1	90.804	2113.05	2.46293	324.21
19	15849	2121.19	85.9925	2122.93	2.32149	325.675
20	12589	2130.24	82.7831	2131.84	2.22545	327.045
21	10000	2138.42	80.8405	2139.95	2.16497	328.575
22	7943.3	2148.73	80.1401	2150.22	2.13594	330.05
23	6309.6	2158.03	80.233	2159.52	2.12921	331.44
24	5011.9	2166.33	81.2231	2167.86	2.1472	332.865
25	3981.1	2176.71	83.1467	2178.3	2.18754	334.35
26	3162.3	2187.35	85.8232	2189.03	2.24692	335.84
27	2511.9	2197.51	89.3652	2199.33	2.32874	337.345
28	1995.3	2209.28	93.6769	2211.26	2.42798	338.805
29	1584.9	2220.87	98.8672	2223.07	2.54897	340.135
30	1258.9	2232.67	104.83	2235.13	2.6882	341.48
31	1000	2247.12	112.323	2249.92	2.86157	342.93
32	794.33	2260.58	120.669	2263.8	3.05554	344.43
33	630.96	2276.18	130.556	2279.92	3.28275	345.71
34	501.19	2292.56	141.828	2296.94	3.54006	347.12
35	398.11	2310.65	155.061	2315.85	3.83918	348.54
36	316.23	2330.03	169.979	2336.22	4.17244	349.945
37	251.19	2350.24	186.639	2357.64	4.54047	351.245
38	199.53	2373.69	205.862	2382.6	4.95666	352.675
39	158.49	2398.78	227.285	2409.52	5.41264	354.125
40	125.89	2428.28	251.419	2441.26	5.91121	355.73
41	100	2458.56	278.43	2474.28	6.46116	357.29
42	79.433	2492.23	308.865	2511.29	7.06471	358.825
43	63.096	2530.51	342.774	2553.62	7.71413	360.395
44	50.119	2574.97	381.231	2603.04	8.42159	361.915
45	39.811	2620.93	423.663	2654.95	9.1822	371.195
46	31.623	2674.61	471.723	2715.89	10.0024	372.881
47	25.119	2733.27	525.184	2783.27	10.8766	374.726
48	19.953	2798.1	586.243	2858.86	11.8331	376.711
49	15.849	2869.54	653.024	2942.91	12.8205	378.791
50	12.589	2951.69	727.717	3040.08	13.8496	380.896
51	10	3041.55	811.563	3147.96	14.9399	383.386
52	7.9433	3141.87	904.351	3269.43	16.0579	385.801
53	6.3096	3251.72	1008.34	3404.47	17.2283	388.186
54	5.0119	3371.13	1125.23	3553.97	18.4582	390.686
55	3.9811	3504.4	1257.89	3723.32	19.7453	393.221
56	3.1623	3648.11	1406.93	3910.01	21.0897	395.891
57	2.5119	3806.7	1579.5	4121.38	22.5349	398.506
58	1.9953	3979.91	1778.45	4359.2	24.0779	401.326
59	1.5849	4171.57	2005.72	4628.71	25.6785	404.026
60	1.2589	4377.89	2271.1	4931.92	27.4188	407.006
61	1	4610.09	2585.3	5285.52	29.2833	412.241
62	0.79433	4873.48	2947.52	5695.5	31.1659	415.611
63	0.63096	5154.37	3380.08	6163.8	33.2557	419.146
64	0.50119	5478.88	3889.12	6718.88	35.3686	423.121
65	0.39811	5823.19	4481.5	7348.03	37.5817	427.522
66	0.31623	6254.82	5204.77	8137.1	39.7646	434.717
67	0.25119	6711.28	6031.26	9023.15	41.9452	441.292
68	0.19953	7277.33	7012.5	10106.2	43.9383	450.692
69	0.15849	7920.03	8185.02	11389.5	45.9426	460.882
70	0.12589	8620.56	9552	12866.8	47.9342	470.062
71	0.1	9419.67	11245.2	14669.1	50.0483	480.843