Folder: Streamlit_cement_impedance/data/20200503 (part 3)

File: Z_p23_2.txt
Index	Frequency (Hz)	Z' (Ω)	-Z'' (Ω)	Z (Ω)	-Phase (°)	Time (s)
1	1000000	3769.36	8411.74	9217.67	65.8625	130.566
2	794330	5848.27	8824.82	10586.8	56.4673	131.881
3	630960	8018.57	9698.01	12583.7	50.4151	133.331
4	501190	10228.3	10573.5	14711.1	45.9508	134.901
5	398110	13186.1	12739.9	18335.2	44.0138	136.431
6	316230	15601.4	13445.5	20595.7	40.7551	137.876
7	251190	17860.8	13544.9	22415.9	37.1753	142.246
8	199530	20390.4	13892	24673	34.2667	143.666
9	158490	22927.2	14009.4	26868.6	31.4265	145.196
10	125890	25409.4	13951.8	28987.8	28.7703	147.667
11	100000	27819.4	13691	31005.8	26.2036	149.157
12	79433	30121.4	13297.4	32926	23.8196	150.567
13	63096	32324.1	12775.5	34757.2	21.5655	151.982
14	50119	34444.8	12131.5	36518.7	19.4023	153.322
15	39811	36390	11336.3	38114.9	17.303	154.712
16	31623	38091.6	10371.4	39478.3	15.231	156.172
17	25119	39502.7	9528.35	40635.6	13.5611	157.557
18	19953	40860.3	8727.28	41781.9	12.0566	158.937
19	15849	42023	7892.73	42757.7	10.6373	160.417
20	12589	43024.1	7081.9	43603.1	9.34724	161.952
21	10000	43874.2	6286.67	44322.3	8.15433	163.442
22	7943.3	44648.5	5611.82	44999.8	7.16387	164.827
23	6309.6	45329.9	5005.09	45605.4	6.30078	166.217
24	5011.9	45860.1	4457.27	46076.2	5.55131	167.687
25	3981.1	46368	3980.73	46538.6	4.90686	169.032
26	3162.3	46809.4	3558.21	46944.5	4.34696	170.342
27	2511.9	47165.2	3194.8	47273.2	3.8751	171.637
28	1995.3	47497.4	2882.37	47584.7	3.47273	172.922
29	1584.9	47797.5	2605.83	47868.5	3.12056	174.222
30	1258.9	48113.7	2378.83	48172.5	2.8305	175.497
31	1000	48385.1	2178.27	48434.1	2.57768	176.777
32	794.33	48612	2012.08	48653.6	2.37015	178.177
33	630.96	48831.3	1872.24	48867.2	2.1957	179.427
34	501.19	49036.6	1753.61	49067.9	2.04809	180.727
35	398.11	49257.4	1656.53	49285.2	1.92614	181.992
36	316.23	49446.3	1581.83	49471.5	1.83232	183.282
37	251.19	49615.8	1520.62	49639.1	1.75544	184.622
38	199.53	49813.1	1480.44	49835.1	1.70232	185.917
39	158.49	49970.7	1456.56	49992	1.6696	187.307
40	125.89	50135.2	1444.19	50156	1.65001	188.832
41	100	50298.9	1449.95	50319.8	1.65119	190.192
42	79.433	50454.7	1473.02	50476.2	1.67227	191.577
43	63.096	50632.5	1523.32	50655.4	1.72327	193.062
44	50.119	50808.1	1578.82	50832.7	1.77985	203.083
45	39.811	51005.4	1665.33	51032.6	1.87004	212.143
46	31.623	51178.8	1765.51	51209.2	1.97574	213.773
47	25.119	51397.2	1897.53	51432.2	2.11435	215.603
48	19.953	51604.6	2082.33	51646.6	2.31073	217.423
49	15.849	51857.5	2269.34	51907.1	2.50572	219.323
50	12.589	52104.5	2507.09	52164.8	2.75475	221.298
51	10	52428.2	2764.43	52501	3.0183	223.543
52	7.9433	52751	3060.89	52839.8	3.32088	226.033
53	6.3096	53118	3406.57	53227.1	3.66948	228.348
54	5.0119	53544.2	3779.36	53677.4	4.03747	230.723
55	3.9811	53977.3	4210.43	54141.2	4.46025	233.153
56	3.1623	54462.5	4700.6	54665	4.93291	235.688
57	2.5119	54967	5266.34	55218.7	5.47275	238.238
58	1.9953	55509.8	5902.67	55822.7	6.06978	240.833
59	1.5849	56131.4	6661.71	56525.3	6.76824	243.568
60	1.2589	56732.5	7537.28	57231	7.5678	246.943
61	1	57414.3	8630.13	58059.2	8.54832	253.258
62	0.79433	58180.1	9920.48	59019.8	9.67663	256.684
63	0.63096	59057.7	11367.7	60141.8	10.8953	260.834
64	0.50119	59841.4	13254.3	61291.7	12.4888	264.809
65	0.39811	60951.2	15538.7	62900.7	14.3022	269.049
66	0.31623	62100	18357.7	64756.6	16.4685	273.959
67	0.25119	63954.9	21823.8	67575.9	18.8415	279.364
68	0.19953	65689.4	25844.9	70590.8	21.4767	285.604
69	0.15849	67994.8	30369.1	74468.6	24.0674	292.914
70	0.12589	69882.9	35563.2	78411.5	26.9714	301.424
71	0.1	72943	42012	84176.5	29.9401	313.445

File: Z_p23_3.txt
Index	Frequency (Hz)	Z' (Ω)	-Z'' (Ω)	Z (Ω)	-Phase (°)	Time (s)
1	1000000	3833.38	8449.39	9278.31	65.5968	88.5354
2	794330	5853.56	8834.26	10597.6	56.4717	89.9105
3	630960	8126.63	9605.73	12582.2	49.7681	91.3505
4	501190	10270.2	10540.6	14716.6	45.7444	92.8905
5	398110	13125.3	12687.7	18255.2	44.0289	97.1306
6	316230	15522.7	13328.9	20460.1	40.6517	98.3906
7	251190	17849.6	13499.9	22379.8	37.1007	102.401
8	199530	20388.4	13894.7	24672.8	34.2744	103.786
9	158490	22881.2	14211.6	26935.4	31.8445	105.301
10	125890	25367.3	13913	28932.2	28.743	106.591
11	100000	27727.9	13667.3	30913.3	26.239	107.976
12	79433	30072.7	13267.8	32869.5	23.8066	109.376
13	63096	32225.5	12761.3	34660.2	21.6036	110.871
14	50119	34349.6	12083.9	36413.1	19.3814	112.181
15	39811	36293.7	11284.8	38007.6	17.272	113.501
16	31623	37972.3	10322.5	39350.4	15.208	114.891
17	25119	39371.2	9506.59	40502.7	13.5748	116.241
18	19953	40714.6	8676.08	41628.7	12.0295	117.631
19	15849	41895	7839.66	42622.2	10.599	118.891
20	12589	42949.8	6988.99	43514.7	9.24243	120.246
21	10000	43801.2	6272.39	44248	8.14944	121.596
22	7943.3	44586.9	5600.74	44937.3	7.15966	122.891
23	6309.6	45238.7	4994.36	45513.6	6.29994	124.171
24	5011.9	45805.5	4447.61	46020.9	5.54591	125.611
25	3981.1	46284.7	3968.16	46454.5	4.9002	126.971
26	3162.3	46702.4	3553.27	46837.3	4.35087	128.251
27	2511.9	47092.9	3187.72	47200.7	3.87244	129.601
28	1995.3	47424.8	2871.98	47511.7	3.46553	131.091
29	1584.9	47726.9	2603.25	47797.8	3.12209	132.476
30	1258.9	48033.9	2371.98	48092.4	2.82704	133.866
31	1000	48274.6	2174.03	48323.5	2.57855	135.196
32	794.33	48525.4	2007.12	48566.9	2.36853	136.516
33	630.96	48721.7	1864.09	48757.3	2.19106	137.806
34	501.19	48953	1747.62	48984.2	2.04459	139.111
35	398.11	49169.6	1655.39	49197.5	1.92825	140.391
36	316.23	49352.3	1582.45	49377.7	1.83652	141.821
37	251.19	49558.1	1522.67	49581.4	1.75985	143.221
38	199.53	49703.3	1478.48	49725.3	1.70383	144.481
39	158.49	49876.9	1454.8	49898.1	1.67072	145.861
40	125.89	50071.3	1444.26	50092.2	1.65218	147.332
41	100	50230.3	1456.06	50251.4	1.66041	148.822
42	79.433	50373.7	1479.2	50395.4	1.68198	150.182
43	63.096	50564.7	1516.28	50587.4	1.71761	151.612
44	50.119	50710.7	1599.98	50736	1.80715	152.982
45	39.811	50943.9	1672.46	50971.3	1.88032	162.112
46	31.623	51116.9	1778.82	51147.8	1.99304	163.757
47	25.119	51323.7	1910	51359.3	2.13126	165.472
48	19.953	51539	2098.3	51581.7	2.33138	167.357
49	15.849	51780.6	2292.32	51831.3	2.53482	169.357
50	12.589	52062.9	2525.94	52124.1	2.77765	171.457
51	10	52364.2	2791.94	52438.6	3.05199	173.842
52	7.9433	52699.3	3091.76	52789.9	3.35758	176.152
53	6.3096	53063	3429.72	53173.7	3.69816	178.702
54	5.0119	53455.2	3815.62	53591.2	4.08284	181.112
55	3.9811	53944.3	4253.9	54111.7	4.50886	183.617
56	3.1623	54425.5	4743.24	54631.8	4.9808	186.212
57	2.5119	54932.5	5303.64	55188	5.51472	188.802
58	1.9953	55480.1	5951.25	55798.4	6.1226	191.532
59	1.5849	56113.6	6700.35	56512.2	6.80927	194.442
60	1.2589	56697.8	7619.11	57207.4	7.65362	197.247
61	1	57426.1	8698.58	58081.2	8.61336	202.323
62	0.79433	58263.5	10002.4	59115.9	9.74126	205.573
63	0.63096	58991.5	11444.2	60091.3	10.9789	209.158
64	0.50119	59855.2	13444.5	61346.6	12.6595	213.073
65	0.39811	60867.3	15666	62851	14.4335	217.363
66	0.31623	62093.7	18677.6	64842	16.7412	222.173
67	0.25119	63829.8	21722.6	67424.8	18.7945	227.638
68	0.19953	65755.3	25668	70587.6	21.3235	233.818
69	0.15849	67589.8	30279.1	74062.2	24.1316	241.003
70	0.12589	69933.9	36445.3	78860.7	27.5258	249.493
71	0.1	73722.7	42624.6	85158	30.0354	259.839

File: Z_p24_1.txt
Index	Frequency (Hz)	Z' (Ω)	-Z'' (Ω)	Z (Ω)	-Phase (°)	Time (s)
1	1000000	3388.4	7304.63	8052.25	65.1148	47.3507
2	794330	5054.31	7807.47	9300.68	57.0822	49.2057
3	630960	6874.06	8547.81	10968.9	51.1941	51.0107
4	501190	8735.11	9461.18	12877	47.285	52.7858
5	398110	11024.9	11225.7	15734.2	45.517	54.5008
6	316230	13106.5	12033.7	17793	42.5566	56.0808
7	251190	15081.2	12269.1	19441.5	39.1297	59.7809
8	199530	17342	12793.8	21550.5	36.4176	61.1409
9	158490	19635.5	13144	23628.7	33.7983	62.5259
10	125890	21950.6	13329.4	25680.8	31.2679	64.821
11	100000	24246.6	13339.7	27673.9	28.8182	66.141
12	79433	26528.5	13227.6	29643.4	26.5018	67.441
13	63096	28762.5	12963.3	31548.8	24.2612	68.9311
14	50119	30956	12548.6	33402.7	22.0662	70.6561
15	39811	33058.8	11976.5	35161.3	19.9144	72.3061
16	31623	34967.6	11194	36715.7	17.7512	73.8612
17	25119	36618.2	10465.9	38084.4	15.9505	75.5162
18	19953	38181	9685.91	39390.4	14.2347	77.1862
19	15849	39559.5	8866.59	40541	12.6331	78.5062
20	12589	40808.3	8059.53	41596.5	11.172	79.7863
21	10000	41806.9	7221.98	42426.1	9.80089	81.0963
22	7943.3	42731.1	6494.98	43221.9	8.64262	82.4063
23	6309.6	43538.3	5824.13	43926.2	7.61923	84.7164
24	5011.9	44241.2	5213.49	44547.4	6.72088	86.0164
25	3981.1	44816.9	4662.13	45058.8	5.93889	87.4464
26	3162.3	45356.7	4178.79	45548.8	5.2639	88.7114
27	2511.9	45816.5	3746.73	45969.5	4.67507	90.0315
28	1995.3	46207.1	3370.01	46329.8	4.17135	91.2815
29	1584.9	46577	3047.96	46676.6	3.74405	92.5115
30	1258.9	46895	2769.61	46976.7	3.37996	93.8065
31	1000	47221.6	2526.03	47289.1	3.06201	95.1866
32	794.33	47490.6	2320.19	47547.2	2.797	96.5116
33	630.96	47745.6	2147.15	47793.9	2.5749	97.8716
34	501.19	48004.1	2001.16	48045.8	2.38712	99.1666
35	398.11	48239.8	1877.32	48276.3	2.22862	100.437
36	316.23	48427	1774.95	48459.6	2.09906	101.702
37	251.19	48637.6	1690.85	48667	1.99104	103.057
38	199.53	48836.3	1629.19	48863.5	1.91069	104.347
39	158.49	49036.8	1580.78	49062.3	1.84638	105.687
40	125.89	49211.2	1543.83	49235.4	1.79686	107.047
41	100	49393	1523.42	49416.5	1.76661	108.392
42	79.433	49589.3	1519.69	49612.6	1.75531	109.782
43	63.096	49795.8	1531.5	49819.3	1.76161	111.312
44	50.119	49954.3	1563.6	49978.8	1.79281	113.042
45	39.811	50132	1598.57	50157.5	1.82638	122.177
46	31.623	50332.4	1651.02	50359.5	1.87876	123.777
47	25.119	50533.2	1719.47	50562.4	1.94882	125.492
48	19.953	50719.4	1834.92	50752.6	2.07193	127.382
49	15.849	50940.5	1958.7	50978.2	2.20198	129.292
50	12.589	51156.3	2106.96	51199.6	2.3585	131.392
51	10	51392	2296.36	51443.2	2.55847	133.667
52	7.9433	51657	2511.72	51718	2.7837	135.997
53	6.3096	51946.4	2771.73	52020.3	3.05426	138.322
54	5.0119	52263.7	3076.46	52354.1	3.36879	141.807
55	3.9811	52585.4	3426.64	52697	3.72831	144.152
56	3.1623	52954.2	3835.9	53092.9	4.14316	146.668
57	2.5119	53363	4309.42	53536.7	4.617	149.238
58	1.9953	53781.5	4868.43	54001.4	5.17245	151.898
59	1.5849	54308.6	5515.03	54587.9	5.79851	154.628
60	1.2589	54803.4	6294.77	55163.7	6.55234	160.428
61	1	55304.2	7222.75	55773.8	7.44074	163.648
62	0.79433	56044.9	8300.67	56656.3	8.42469	166.913
63	0.63096	56617.7	9626.01	57430.2	9.64902	170.398
64	0.50119	57388	11190	58468.8	11.0336	174.158
65	0.39811	58233.6	13223.9	59716.2	12.7939	178.333
66	0.31623	59101.7	15533.1	61108.8	14.7255	183.088
67	0.25119	60435.1	18754.6	63278.3	17.2405	188.493
68	0.19953	61774.1	22289.4	65672.4	19.8405	194.668
69	0.15849	63650.2	26418.4	68915	22.5412	201.904
70	0.12589	65132	31015.4	72139.7	25.4634	210.394
71	0.1	67502.5	37974.3	77450.9	29.3604	220.579

File: Z_p24_2.txt
Index	Frequency (Hz)	Z' (Ω)	-Z'' (Ω)	Z (Ω)	-Phase (°)	Time (s)
1	1000000	3467.74	7369.15	8144.3	64.7995	23.5402
2	794330	5096.14	7756.3	9280.67	56.6938	25.0103
3	630960	6901.86	8535.54	10976.8	51.0409	26.5953
4	501190	8699.56	9388.92	12799.8	47.1825	28.2003
5	398110	11027.2	11232.4	15740.6	45.5282	29.8053
6	316230	13086.4	11989.3	17748.1	42.4949	31.2654
7	251190	15071.4	12236.3	19413.2	39.0728	34.7154
8	199530	17316.4	12770.6	21516.2	36.4083	36.2055
9	158490	19597.7	13096.1	23570.7	33.7527	37.7355
10	125890	21927.6	13286.9	25639.1	31.2134	38.9905
11	100000	24212.8	13298	27624.2	28.7762	40.5555
12	79433	26491.4	13193.5	29595	26.4746	41.9556
13	63096	28712	12919	31484.6	24.2254	43.5206
14	50119	30888.1	12503.9	33323	22.0387	44.9406
15	39811	33000.5	11937.9	35093.5	19.8876	46.2206
16	31623	34889.9	11170.6	36634.5	17.7533	47.5457
17	25119	36510.2	10413	37966.1	15.9185	48.9857
18	19953	38088.9	9658.36	39294.4	14.2288	50.2707
19	15849	39479.7	8843.07	40457.9	12.6253	51.5507
20	12589	40705.7	8026.28	41489.4	11.1544	53.7408
21	10000	41733.3	7211.32	42351.7	9.80364	55.0308
22	7943.3	42661	6486.55	43151.3	8.64554	56.3308
23	6309.6	43464.5	5821.85	43852.7	7.62908	57.6809
24	5011.9	44155.7	5204.47	44461.4	6.72222	58.9709
25	3981.1	44734.2	4653.34	44975.6	5.93866	60.3809
26	3162.3	45264.5	4172.74	45456.5	5.26697	61.6809
27	2511.9	45729.8	3737.66	45882.3	4.6726	62.976
28	1995.3	46125.1	3377.51	46248.6	4.18801	64.276
29	1584.9	46520.9	3048.55	46620.7	3.74928	65.531
30	1258.9	46870.8	2770.82	46952.7	3.38316	67.121
31	1000	47159.1	2530.19	47226.9	3.0711	68.4161
32	794.33	47436.9	2324.79	47493.8	2.80571	69.8461
33	630.96	47713.1	2149.68	47761.5	2.57968	71.2411
34	501.19	47944.5	2004.12	47986.3	2.39362	72.5561
35	398.11	48174.1	1884.07	48210.9	2.23968	73.7962
36	316.23	48398.5	1782.92	48431.4	2.10972	75.2062
37	251.19	48626.3	1705.29	48656.2	2.00849	76.5512
38	199.53	48779.1	1637.73	48806.6	1.92295	77.7912
39	158.49	48969.7	1592.02	48995.6	1.86205	79.1113
40	125.89	49168.8	1560.73	49193.6	1.81809	80.7113
41	100	49368.2	1546.68	49392.4	1.79446	82.0863
42	79.433	49562.1	1547.28	49586.2	1.78814	84.4864
43	63.096	49742.2	1563.97	49766.8	1.80088	85.8714
44	50.119	49919.4	1584.78	49944.6	1.81835	87.3514
45	39.811	50125.1	1640.31	50151.9	1.8743	96.6366
46	31.623	50319.7	1698.46	50348.3	1.93319	98.3066
47	25.119	50523.7	1781.82	50555.1	2.01982	99.9966
48	19.953	50746.9	1903.99	50782.6	2.14869	101.932
49	15.849	50965.3	2042.61	51006.2	2.2951	103.857
50	12.589	51210.2	2202.27	51257.5	2.46246	105.957
51	10	51462.2	2401.68	51518.2	2.67198	108.837
52	7.9433	51729.8	2628.87	51796.6	2.90922	111.112
53	6.3096	52012.6	2920.23	52094.5	3.21348	113.482
54	5.0119	52334	3242.54	52434.4	3.54543	115.927
55	3.9811	52718.7	3613.25	52842.4	3.92082	118.312
56	3.1623	53128.8	4046.57	53282.7	4.35554	120.837
57	2.5119	53528.3	4560.28	53722.2	4.86948	123.442
58	1.9953	54014.2	5134.72	54257.7	5.43036	126.082
59	1.5849	54543.9	5816.36	54853.1	6.08681	128.827
60	1.2589	55086.6	6599.15	55480.5	6.83124	131.642
61	1	55685.2	7603.03	56201.8	7.77486	134.857
62	0.79433	56321.3	8686.78	56987.3	8.76798	138.022
63	0.63096	57092.2	9988.12	57959.3	9.92331	141.487
64	0.50119	57701.1	11707.3	58876.8	11.4694	145.287
65	0.39811	58548.2	13692.8	60128.1	13.1633	149.538
66	0.31623	59565.3	16162.2	61719.1	15.1809	154.718
67	0.25119	61073.2	19346.7	64064.3	17.5771	160.063
68	0.19953	62556.7	23105	66687.2	20.2715	166.318
69	0.15849	64316.2	27198.3	69830.6	22.9227	173.563
70	0.12589	65832.6	32147.1	73262.3	26.027	182.073
71	0.1	68357.4	39230.8	78814.9	29.8519	192.588

File: Z_p24_3.txt
Index	Frequency (Hz)	Z' (Ω)	-Z'' (Ω)	Z (Ω)	-Phase (°)	Time (s)
1	1000000	3418.27	7314.62	8073.92	64.9523	81.1013
2	794330	5113.3	7768.95	9300.67	56.6482	82.4914
3	630960	6897.7	8522.28	10963.9	51.0143	83.9364
4	501190	8762.26	9451.72	12888.5	47.1678	85.5164
5	398110	11021.3	11218.3	15726.4	45.5075	87.0514
6	316230	13099.4	11971.3	17745.6	42.4237	88.4515
7	251190	15083.8	12194.8	19396.8	38.9545	90.8215
8	199530	17307.4	12776.8	21512.6	36.4359	92.1815
9	158490	19617.8	13111.2	23595.8	33.7562	93.7116
10	125890	21912.4	13280.7	25622.8	31.2194	95.0466
11	100000	24209.5	13295.1	27619.9	28.7742	97.3816
12	79433	26496.9	13189.8	29598.2	26.4636	98.6467
13	63096	28703.7	12911.9	31474.1	24.2198	100.062
14	50119	30899.7	12506.8	33334.8	22.0359	102.377
15	39811	32998.6	11941.8	35093	19.8946	103.612
16	31623	34898	11177.6	36644.4	17.76	104.947
17	25119	36518.3	10416.9	37975	15.9209	106.277
18	19953	38103.6	9667.11	39310.8	14.2359	107.597
19	15849	39476.2	8840.27	40453.9	12.6225	110.602
20	12589	40727.6	8039.13	41513.5	11.1659	111.872
21	10000	41733.9	7217.25	42353.4	9.8114	113.222
22	7943.3	42683	6495.72	43174.5	8.65317	114.617
23	6309.6	43489.9	5825.27	43878.3	7.62909	119.907
24	5011.9	44185.2	5215.72	44492	6.73217	121.212
25	3981.1	44761.3	4666.34	45003.9	5.95155	122.857
26	3162.3	45293.3	4181.73	45485.9	5.27492	124.317
27	2511.9	45743.6	3751.39	45897.1	4.68829	125.627
28	1995.3	46190.2	3384.46	46314	4.1907	126.947
29	1584.9	46539.3	3057.25	46639.6	3.75846	128.152
30	1258.9	46867.3	2772.39	46949.2	3.38533	129.387
31	1000	47165.1	2536.74	47233.2	3.07865	130.672
32	794.33	47471.2	2330.31	47528.3	2.81033	132.067
33	630.96	47728.6	2158.34	47777.4	2.58922	133.397
34	501.19	47974.6	2008.14	48016.6	2.39691	134.762
35	398.11	48186.6	1887.7	48223.6	2.2434	135.987
36	316.23	48426.8	1787.49	48459.8	2.11389	137.312
37	251.19	48624.8	1708.26	48654.8	2.01206	138.642
38	199.53	48819.4	1644.36	48847	1.92914	139.852
39	158.49	49016.7	1598.97	49042.7	1.86838	141.162
40	125.89	49182.3	1570.47	49207.4	1.82892	142.577
41	100	49377.2	1551.76	49401.5	1.80003	143.947
42	79.433	49588.3	1560.41	49612.8	1.80235	145.838
43	63.096	49753.7	1579.22	49778.7	1.818	147.573
44	50.119	49963.2	1607.92	49989.1	1.84326	148.963
45	39.811	50138	1655.9	50165.3	1.89162	158.083
46	31.623	50370.1	1727.83	50399.7	1.96463	159.683
47	25.119	50547	1806.57	50579.3	2.04691	161.268
48	19.953	50769.9	1938.29	50806.9	2.18637	163.188
49	15.849	50994.3	2075.13	51036.5	2.33027	165.128
50	12.589	51247.2	2251.62	51296.7	2.51576	167.183
51	10	51498.6	2456.79	51557.2	2.73127	169.548
52	7.9433	51779.7	2700.83	51850.1	2.98585	171.868
53	6.3096	52066.2	2992.39	52152.1	3.28933	174.313
54	5.0119	52417.7	3325.28	52523.1	3.62987	176.728
55	3.9811	52788.2	3701.74	52917.8	4.01127	179.343
56	3.1623	53209.1	4155.65	53371.1	4.46576	181.863
57	2.5119	53649.8	4666.62	53852.4	4.97124	184.493
58	1.9953	54114.3	5264.59	54369.8	5.55662	187.088
59	1.5849	54705.4	5961	55029.2	6.21873	192.908
60	1.2589	55227.8	6767.99	55641	6.98658	195.888
61	1	55853.1	7748.11	56388	7.89783	200.959
62	0.79433	56533.8	8873.51	57225.9	8.92034	204.084
63	0.63096	57283.4	10267	58196.2	10.1613	207.689
64	0.50119	58052.7	11899.5	59259.8	11.5839	211.574
65	0.39811	58990.4	14030.4	60635.9	13.3788	215.799
66	0.31623	59909.4	16458.1	62128.9	15.3612	220.639
67	0.25119	61331.8	19890.4	64476.5	17.9683	226.114
68	0.19953	62501.2	23488.3	66769.1	20.5965	232.594
69	0.15849	64469.6	28076.6	70318	23.5332	239.879
70	0.12589	66864	32909.5	74524	26.2057	248.499
71	0.1	68496	39167.9	78903.9	29.7621	258.78

File: Z_p25_1.txt
Index	Frequency (Hz)	Z' (Ω)	-Z'' (Ω)	Z (Ω)	-Phase (°)	Time (s)
1	1000000	3483.73	8367.26	9063.52	67.3955	24.3052
2	794330	5501.65	8924.73	10484.2	58.3483	25.7003
3	630960	7620.66	9948.59	12531.9	52.5477	27.1703
4	501190	9817.84	11071.2	14797.4	48.4338	28.7603
5	398110	12563.9	13486	18431.6	47.0273	30.3803
6	316230	15052.9	14509.7	20907.4	43.9474	32.2254
7	251190	17462	14867.3	22933.7	40.4113	35.7604
8	199530	20210.9	15608.9	25536.6	37.679	37.2555
9	158490	22890.8	16082.3	27975.6	35.0906	38.8955
10	125890	25869.3	16346.2	30600.9	32.2878	40.4355
11	100000	28689.9	16442.2	33067.4	29.817	42.0306
12	79433	31507	16361.2	35501.9	27.4424	43.5756
13	63096	34272.5	16070.1	37853	25.1215	45.1506
14	50119	36997.1	15623.7	40160.7	22.8942	46.6456
15	39811	39598.8	14968.6	42333.5	20.707	48.4357
16	31623	42020.2	14072	44313.9	18.515	50.4307
17	25119	44075.7	13156.6	45997.5	16.6203	52.3507
18	19953	46086.1	12273.6	47692.5	14.9128	53.8908
19	15849	47868.1	11329.2	49190.5	13.3155	55.4458
20	12589	49432.7	10321.6	50498.8	11.7939	56.8858
21	10000	50784.2	9331.31	51634.3	10.4117	58.4359
22	7943.3	52008.4	8458.78	52691.8	9.23785	60.0159
23	6309.6	53057.1	7632.6	53603.3	8.1862	61.6759
24	5011.9	54024.4	6881.08	54460.9	7.25867	63.2709
25	3981.1	54821.1	6195.03	55170.1	6.44732	64.641
26	3162.3	55546.8	5581.57	55826.5	5.73805	66.136
27	2511.9	56194.6	5032.07	56419.5	5.11702	67.566
28	1995.3	56748.8	4554.07	56931.3	4.58813	69.0711
29	1584.9	57273.7	4138.46	57423	4.13287	70.5961
30	1258.9	57741.8	3776.29	57865.1	3.74179	72.0511
31	1000	58163.1	3472.27	58266.6	3.41644	73.7911
32	794.33	58552.7	3212.15	58640.7	3.14005	75.3562
33	630.96	58898.8	2993.62	58974.8	2.90964	76.7212
34	501.19	59232.6	2819.83	59299.7	2.72556	78.4012
35	398.11	59541.8	2679.89	59602.1	2.57706	80.0313
36	316.23	59833.8	2574.71	59889.1	2.46397	81.4863
37	251.19	60135.1	2508.15	60187.4	2.38834	83.1213
38	199.53	60424.7	2473.52	60475.3	2.34413	84.4413
39	158.49	60691.3	2469.21	60741.5	2.32978	85.7964
40	125.89	60971.7	2495.77	61022.8	2.34399	87.5264
41	100	61204.1	2554.58	61257.4	2.39006	89.1214
42	79.433	61514.2	2658.25	61571.7	2.47441	90.6415
43	63.096	61813.6	2792.4	61876.7	2.58655	92.1515
44	50.119	62118.2	2971.68	62189.3	2.73889	93.8365
45	39.811	62473.7	3207.15	62556	2.93876	103.162
46	31.623	62829.5	3483.05	62926	3.17303	104.912
47	25.119	63222.1	3818.21	63337.3	3.4561	106.627
48	19.953	63642.6	4244.69	63784	3.81574	108.907
49	15.849	64105	4729.95	64279.2	4.21989	110.982
50	12.589	64627.1	5296.79	64843.8	4.68545	113.007
51	10	65203.7	5958.71	65475.4	5.22153	115.392
52	7.9433	65891.4	6741.87	66235.5	5.84205	117.892
53	6.3096	66644.7	7629.29	67080	6.53062	120.542
54	5.0119	67492.6	8654.26	68045.2	7.3069	123.077
55	3.9811	68475.7	9807.43	69174.4	8.15076	125.632
56	3.1623	69576.9	11127.8	70461.2	9.08669	128.622
57	2.5119	70851.6	12641.2	71970.4	10.1162	132.092
58	1.9953	72339.6	14323.7	73744.1	11.2001	135.027
59	1.5849	73950.5	16229	75710.4	12.3778	137.797
60	1.2589	75830.4	18453.7	78043.5	13.6773	140.917
61	1	77898	20935	80662.1	15.0428	146.362
62	0.79433	80272.8	23707.2	83700.4	16.4536	149.803
63	0.63096	82726	26945.4	87003.7	18.0414	153.413
64	0.50119	85494.3	30640.7	90819.2	19.7174	157.583
65	0.39811	88941.2	35073.6	95607	21.5216	162.058
66	0.31623	92529.9	40052.1	100826	23.4057	166.998
67	0.25119	96424.6	46166	106906	25.5841	172.948
68	0.19953	101487	52680.5	114345	27.4333	179.348
69	0.15849	106814	60678.8	122846	29.6	186.693
70	0.12589	113388	70559.8	133550	31.8934	195.343
71	0.1	121423	80131.5	145480	33.4224	205.664

File: Z_p25_2.txt
Index	Frequency (Hz)	Z' (Ω)	-Z'' (Ω)	Z (Ω)	-Phase (°)	Time (s)
1	1000000	3506.77	8333.67	9041.43	67.1789	342.476
2	794330	5457.15	8899.08	10439.1	58.4823	343.831
3	630960	7612.87	9876.03	12469.6	52.3734	345.286
4	501190	9765.27	11090.8	14777.2	48.6366	346.856
5	398110	12593.2	13481.2	18448.1	46.9505	348.331
6	316230	15073.7	14509.7	20922.4	43.9079	350.431
7	251190	17481.3	14870.1	22950.3	40.3855	351.776
8	199530	20221.7	15582.4	25528.9	37.6171	353.231
9	158490	23045	16067.9	28093.6	34.8857	355.766
10	125890	25841.2	16340.6	30574.3	32.3071	357.071
11	100000	28696.5	16415.2	33059.8	29.7708	358.556
12	79433	31522.9	16328.7	35501	27.3839	359.951
13	63096	34272.3	16063.2	37849.9	25.1122	361.426
14	50119	36965.9	15595.1	40120.9	22.8738	362.906
15	39811	39586.3	14951.9	42315.9	20.6917	364.346
16	31623	41999.4	14072.9	44294.4	18.5246	365.711
17	25119	44087	13145.9	46005.2	16.6036	367.076
18	19953	46063.5	12279.2	47672.1	14.9263	368.471
19	15849	47872	11317.7	49191.6	13.3015	369.841
20	12589	49410.1	10311.7	50474.7	11.7883	371.376
21	10000	50740.5	9319.04	51589.2	10.407	372.736
22	7943.3	51978.3	8446.34	52660	9.22975	374.097
23	6309.6	53038.5	7627.44	53584.2	8.18356	375.497
24	5011.9	53989.1	6875.37	54425.1	7.25741	377.127
25	3981.1	54817.8	6190.35	55166.3	6.44288	378.527
26	3162.3	55523.6	5576.64	55802.9	5.7354	379.887
27	2511.9	56147.7	5032.5	56372.8	5.12172	381.242
28	1995.3	56727.9	4554.23	56910.4	4.58998	382.692
29	1584.9	57236.5	4137.21	57385.8	4.13431	384.047
30	1258.9	57690.2	3776.56	57813.7	3.7454	385.417
31	1000	58106.5	3466.28	58209.8	3.41387	386.897
32	794.33	58493	3207.66	58580.8	3.13886	388.472
33	630.96	58851.9	2992.01	58927.9	2.91039	389.982
34	501.19	59200.6	2818.21	59267.7	2.72547	391.592
35	398.11	59497.6	2678.71	59557.8	2.57784	392.992
36	316.23	59816.8	2579.45	59872.4	2.46921	394.312
37	251.19	60103.8	2508.43	60156.2	2.38985	395.782
38	199.53	60399.6	2472.74	60450.2	2.34436	397.057
39	158.49	60647.1	2472	60697.5	2.33411	398.467
40	125.89	60939	2499.25	60990.2	2.34852	399.887
41	100	61181	2559.74	61234.6	2.39579	401.322
42	79.433	61472.8	2661.64	61530.4	2.47923	402.937
43	63.096	61757.4	2794.29	61820.5	2.59066	404.632
44	50.119	62096.9	2983.59	62168.6	2.75079	406.032
45	39.811	62418.9	3207.43	62501.3	2.94158	415.332
46	31.623	62760.4	3490.17	62857.4	3.183	417.002
47	25.119	63190.4	3830.15	63306.4	3.46862	418.657
48	19.953	63623.3	4264.17	63766	3.83435	420.772
49	15.849	64070.8	4753.39	64246.9	4.24297	422.797
50	12.589	64559.7	5315.64	64778.2	4.70693	424.902
51	10	65178.1	5989.58	65452.7	5.25048	427.408
52	7.9433	65837.5	6762.55	66183.9	5.86461	429.718
53	6.3096	66604.9	7656.98	67043.5	6.558	432.163
54	5.0119	67455.8	8682.9	68012.4	7.33477	434.698
55	3.9811	68457.5	9852.95	69163	8.19022	437.358
56	3.1623	69602.4	11182.1	70494.9	9.12696	440.058
57	2.5119	70892.2	12692.4	72019.5	10.1506	442.738
58	1.9953	72352.4	14406.3	73772.7	11.2611	445.483
59	1.5849	73975.5	16345	75759.7	12.4594	449.848
60	1.2589	75804.1	18512.6	78031.9	13.7239	452.608
61	1	77882.9	21032.8	80672.9	15.1126	457.693
62	0.79433	80259.7	23862.5	83731.9	16.558	460.848
63	0.63096	82890.9	27109.6	87211.4	18.1104	464.558
64	0.50119	85785.7	30810.1	91150.7	19.7559	468.463
65	0.39811	89054.7	35324.4	95804.8	21.6363	472.658
66	0.31623	92688	40221	101039	23.458	477.433
67	0.25119	96678.4	46500	107280	25.6864	483.274
68	0.19953	101545	53023	114555	27.5718	489.639
69	0.15849	106960	61137	123200	29.7518	496.994
70	0.12589	114109	70723	134248	31.79	505.649
71	0.1	121357	79997.9	145352	33.3926	516.044