Folder: Streamlit_cement_impedance/data/20200212 (part 4)

File: Z_p30_1.txt
Index	Frequency (Hz)	Z' (Ω)	-Z'' (Ω)	Z (Ω)	-Phase (°)	Time (s)
1	1000000	2552.47	3542.65	4366.4	54.2274	133.778
2	794330	3246.92	3724.21	4940.87	48.9168	135.238
3	630960	4113.29	3924.56	5685.18	43.655	136.668
4	501190	5025.58	4014.87	6432.39	38.6209	138.208
5	398110	6029.84	4032.89	7254.18	33.7754	143.263
6	316230	6743.5	3849.65	7764.95	29.7207	144.628
7	251190	7352.72	3584.25	8179.82	25.988	148.729
8	199530	7969.88	3377.97	8656.19	22.9693	150.034
9	158490	8518.34	3164.98	9087.31	20.3825	151.359
10	125890	8997.04	2938.4	9464.72	18.0868	152.664
11	100000	9428.13	2707.41	9809.17	16.0221	154.134
12	79433	9807.21	2484.03	10116.9	14.2133	155.499
13	63096	10144.3	2265.43	10394.2	12.5888	157.549
14	50119	10443.3	2060.72	10644.7	11.1625	158.924
15	39811	10701.5	1855.74	10861.2	9.83776	160.289
16	31623	10919.4	1683.22	11048.3	8.76316	161.614
17	25119	11113.3	1537.19	11219.2	7.87516	162.929
18	19953	11295.3	1416.95	11383.8	7.15019	164.274
19	15849	11449.6	1289.53	11522	6.42596	165.599
20	12589	11599.3	1197.62	11661	5.89484	166.939
21	10000	11714.1	1135.95	11769.1	5.53881	168.284
22	7943.3	11854.7	1072.68	11903.2	5.17036	169.624
23	6309.6	11984	1020.49	12027.4	4.86723	170.969
24	5011.9	12101.3	978.938	12140.9	4.62488	173.384
25	3981.1	12229.6	952.018	12266.6	4.45122	174.734
26	3162.3	12347.3	928.552	12382.2	4.30069	176.044
27	2511.9	12468.8	913.281	12502.2	4.18917	177.444
28	1995.3	12585.6	903.907	12618	4.10798	178.774
29	1584.9	12708.2	900.121	12740	4.0515	180.049
30	1258.9	12831.4	902.564	12863.1	4.02358	181.379
31	1000	12951.2	900.587	12982.4	3.97778	182.699
32	794.33	13083.9	907.326	13115.4	3.96691	184.184
33	630.96	13216.2	912.617	13247.7	3.95017	185.519
34	501.19	13346.1	919.13	13377.7	3.93967	186.944
35	398.11	13478.4	929.616	13510.4	3.94548	188.169
36	316.23	13621.5	937.957	13653.8	3.93908	189.499
37	251.19	13758.1	947.986	13790.7	3.94166	190.869
38	199.53	13897	956.563	13929.9	3.9376	192.184
39	158.49	14040.2	967.314	14073.5	3.94123	193.764
40	125.89	14178.8	975.761	14212.4	3.93679	195.174
41	100	14336.4	981.946	14370	3.91824	196.439
42	79.433	14478.6	989.318	14512.4	3.90892	198.054
43	63.096	14625.2	1011.03	14660.1	3.95451	199.524
44	50.119	14837.7	1074.05	14876.5	4.14023	209.48
45	39.811	14934.8	997.275	14968	3.82027	218.59
46	31.623	15091	997.748	15124	3.78262	220.3
47	25.119	15235.6	994.582	15268	3.73499	221.93
48	19.953	15375.6	985.352	15407.1	3.66681	223.82
49	15.849	15534	979.575	15564.9	3.60829	225.87
50	12.589	15670.3	968.356	15700.2	3.53612	227.97
51	10	15814.8	960.642	15843.9	3.47606	230.295
52	7.9433	15953.6	945.714	15981.6	3.39246	232.66
53	6.3096	16087.2	942.43	16114.8	3.35271	235.025
54	5.0119	16198.7	937.856	16225.8	3.31356	237.475
55	3.9811	16318.8	947.626	16346.2	3.32342	239.91
56	3.1623	16454.2	1019.37	16485.7	3.54506	242.395
57	2.5119	16628.6	927.198	16654.5	3.19146	244.92
58	1.9953	16552.9	1003.68	16583.3	3.46987	247.565
59	1.5849	16753.9	1051.89	16786.9	3.59257	250.31
60	1.2589	16809.1	1017.55	16839.9	3.46419	253.175
61	1	16952.8	1304.12	17002.9	4.39891	259.886
62	0.79433	17068.2	1452.94	17130	4.8656	263.021
63	0.63096	17162.7	1631.45	17240	5.43012	266.526
64	0.50119	17236.1	1894.49	17339.9	6.27243	270.356
65	0.39811	17345.9	2200.28	17484.9	7.22921	274.666
66	0.31623	17485.4	2650.3	17685.1	8.61883	279.451
67	0.25119	17636.9	3081.25	17904.1	9.90983	284.846
68	0.19953	17813.5	3690.12	18191.7	11.7034	291.071
69	0.15849	17941.1	4437.68	18481.8	13.8931	298.336
70	0.12589	18191.2	5499.33	19004.3	16.8205	306.906
71	0.1	18576.9	6490.22	19678.1	19.2579	317.087

File: Z_p31_1.txt
Index	Frequency (Hz)	Z' (Ω)	-Z'' (Ω)	Z (Ω)	-Phase (°)	Time (s)
1	1000000	2266.19	3660.7	4305.38	58.24	130.487
2	794330	2954.74	3970.34	4949.15	53.3432	131.922
3	630960	3865.43	4344.79	5815.39	48.3414	133.367
4	501190	4837.41	4577.21	6659.68	43.4169	134.862
5	398110	5936.79	4803.79	7636.88	38.9782	139.977
6	316230	6907.45	4772.71	8395.93	34.6426	141.317
7	251190	7694.66	4575.5	8952.26	30.7371	145.577
8	199530	8535.53	4426.4	9615	27.4106	147.148
9	158490	9305.71	4229.11	10221.6	24.4401	148.538
10	125890	10006.6	3962.4	10762.6	21.6025	149.888
11	100000	10627.2	3673.86	11244.3	19.0705	151.353
12	79433	11178.1	3381.68	11678.4	16.832	152.718
13	63096	11665.1	3086.45	12066.5	14.8201	154.123
14	50119	12071.4	2786.37	12388.8	12.9976	155.558
15	39811	12431.2	2508.91	12681.9	11.4104	156.903
16	31623	12723.5	2254.77	12921.8	10.0492	158.283
17	25119	12978.9	2038.68	13138	8.92688	159.668
18	19953	13210	1840.34	13337.6	7.93107	160.998
19	15849	13406.9	1703.97	13514.8	7.24325	162.398
20	12589	13585.2	1570.06	13675.6	6.59251	163.793
21	10000	13730.1	1480.1	13809.6	6.15273	165.288
22	7943.3	13899.6	1396.61	13969.6	5.73775	166.663
23	6309.6	14063.1	1330.59	14125.9	5.40499	168.048
24	5011.9	14219.8	1286.15	14277.8	5.16824	169.453
25	3981.1	14372	1254.47	14426.6	4.98845	170.813
26	3162.3	14524.9	1234.41	14577.2	4.85765	172.213
27	2511.9	14676.2	1229.24	14727.6	4.78777	173.693
28	1995.3	14833.2	1231.48	14884.2	4.74591	175.143
29	1584.9	14999	1245.36	15050.6	4.74637	176.523
30	1258.9	15161	1266.97	15213.8	4.77698	177.853
31	1000	15333.3	1292.59	15387.7	4.8186	179.193
32	794.33	15508.7	1326.52	15565.4	4.88882	180.668
33	630.96	15696.3	1365.81	15755.6	4.97304	182.073
34	501.19	15878.2	1413.13	15941	5.08581	183.473
35	398.11	16076.3	1464.16	16142.9	5.20387	184.693
36	316.23	16280.1	1523.94	16351.2	5.34774	186.028
37	251.19	16493.6	1588.63	16569.9	5.50164	187.448
38	199.53	16719.1	1658.97	16801.2	5.66667	188.763
39	158.49	16951.8	1740.89	17041	5.86353	190.123
40	125.89	17199.3	1825.39	17295.9	6.05821	191.603
41	100	17455.8	1918.04	17560.9	6.27048	193.043
42	79.433	17729.8	2014.72	17843.9	6.48298	194.483
43	63.096	18012.3	2105.79	18135	6.66808	196.053
44	50.119	18378	2135.14	18501.6	6.62685	214.209
45	39.811	18628.5	2351.65	18776.3	7.19492	223.309
46	31.623	18946.4	2492.36	19109.6	7.49412	224.979
47	25.119	19316.2	2633.8	19494.9	7.7645	226.679
48	19.953	19677.4	2800.63	19875.7	8.10035	228.699
49	15.849	20058.1	2959.15	20275.2	8.39223	230.749
50	12.589	20450	3147.36	20690.8	8.74946	232.769
51	10	20891.7	3323.77	21154.4	9.03972	235.149
52	7.9433	21349.5	3558.64	21644.1	9.46332	237.544
53	6.3096	21772.1	3806.53	22102.4	9.91708	239.969
54	5.0119	22263.6	4082.59	22634.8	10.3912	242.439
55	3.9811	22749.5	4407.4	23172.5	10.9644	244.924
56	3.1623	23301.6	4798.76	23790.6	11.6369	247.414
57	2.5119	23842.9	5524.1	24474.5	13.0446	250.039
58	1.9953	24300	5778.77	24977.7	13.377	252.724
59	1.5849	25296.5	6458.09	26107.9	14.3215	255.665
60	1.2589	25593.8	6911.42	26510.6	15.1118	258.57
61	1	26441.2	7798.09	27567.1	16.432	265.485
62	0.79433	27242.2	8792.57	28626	17.8878	268.675
63	0.63096	28069	9900.34	29763.9	19.4285	272.205
64	0.50119	28946.1	11333.7	31085.8	21.3826	276.165
65	0.39811	29964.1	12968.2	32650	23.4025	280.45
66	0.31623	31077.5	15086.1	34545.6	25.8935	285.295
67	0.25119	32604.2	17422.8	36967.4	28.1189	290.845
68	0.19953	34203.8	20375	39812.5	30.782	297.15
69	0.15849	36001.4	23677.6	43089.8	33.3323	304.52
70	0.12589	37746.7	27548.2	46730.3	36.1226	313.171
71	0.1	40211.4	32852.1	51925.1	39.2483	323.411

File: Z_p32_1.txt
Index	Frequency (Hz)	Z' (Ω)	-Z'' (Ω)	Z (Ω)	-Phase (°)	Time (s)
1	1000000	2183.74	3447.88	4081.25	57.6516	13.58
2	794330	2843.08	3747.82	4704.17	52.8162	15.2651
3	630960	3681.12	4104.7	5513.55	48.1141	16.7551
4	501190	4599.5	4354.45	6333.77	43.4323	18.3601
5	398110	5524.32	4570.71	7170.05	39.6037	23.4352
6	316230	6439.65	4636.85	7935.33	35.7557	24.7852
7	251190	7150.89	4490.68	8444.02	32.1284	29.2053
8	199530	7985.99	4453.25	9143.71	29.1454	30.6703
9	158490	8751.12	4340.52	9768.43	26.3812	32.1204
10	125890	9494.23	4194.68	10379.6	23.8365	33.5104
11	100000	10175.5	4006.86	10936	21.4933	34.9554
12	79433	10809.7	3785.03	11453.2	19.2978	36.2954
13	63096	11389.5	3536.8	11926	17.2512	37.7105
14	50119	11926.4	3283.04	12370	15.3909	39.0555
15	39811	12401.8	3019.75	12764.1	13.6848	40.4255
16	31623	12799.8	2750.55	13092	12.1279	41.7606
17	25119	13146.7	2515.16	13385.1	10.8307	43.1056
18	19953	13452.9	2312.89	13650.3	9.75519	44.5556
19	15849	13748.3	2079.81	13904.7	8.60232	46.0006
20	12589	13974.6	1899.79	14103.1	7.74168	47.3657
21	10000	14168.9	1769.37	14278.9	7.11812	48.7107
22	7943.3	14367.2	1639.72	14460.4	6.51098	50.0707
23	6309.6	14556.8	1535.11	14637.5	6.01998	51.4307
24	5011.9	14738.4	1450.45	14809.6	5.62055	55.3408
25	3981.1	14899.5	1388.43	14964.1	5.32382	56.7308
26	3162.3	15061.5	1338.69	15120.8	5.07922	58.0959
27	2511.9	15224.6	1307.31	15280.6	4.90785	59.5709
28	1995.3	15385.4	1287.14	15439.2	4.78222	60.9209
29	1584.9	15543.2	1279.88	15595.8	4.70732	62.2309
30	1258.9	15705	1289.51	15757.8	4.69393	63.621
31	1000	15870.9	1292.21	15923.4	4.65475	65.046
32	794.33	16043.9	1313.22	16097.6	4.6793	66.381
33	630.96	16223	1342.86	16278.5	4.73189	67.711
34	501.19	16397.4	1378.08	16455.2	4.80401	69.1061
35	398.11	16591.7	1419.96	16652.4	4.89159	70.3161
36	316.23	16793.8	1471.35	16858.2	5.00705	71.6511
37	251.19	16988.6	1529.26	17057.3	5.14373	73.0611
38	199.53	17194.8	1597.1	17268.8	5.30656	74.4812
39	158.49	17407.6	1670.33	17487.5	5.48099	75.8662
40	125.89	17645.1	1750.46	17731.7	5.66543	77.3462
41	100	17877.3	1844.87	17972.3	5.89186	78.7662
42	79.433	18129.5	1946.4	18233.7	6.12785	80.2613
43	63.096	18399.2	2030.22	18510.8	6.29673	81.7863
44	50.119	18562.8	2208.83	18693.7	6.78585	91.7615
45	39.811	18969.5	2327.96	19111.8	6.99641	100.937
46	31.623	19272.3	2500.01	19433.8	7.39114	102.692
47	25.119	19608.3	2676.5	19790.1	7.77277	104.407
48	19.953	19950.9	2864	20155.4	8.16913	106.337
49	15.849	20317.4	3089.92	20551	8.6474	108.377
50	12.589	20728.2	3333.99	20994.6	9.13738	110.497
51	10	21159.4	3613.71	21465.7	9.69178	112.922
52	7.9433	21603.4	3957.37	21962.9	10.3805	115.262
53	6.3096	22077.1	4326.9	22497.1	11.0889	117.702
54	5.0119	22618.5	4763.19	23114.6	11.8921	120.122
55	3.9811	23167.6	5240.18	23752.8	12.745	122.657
56	3.1623	23762.6	5717.85	24440.9	13.5295	125.162
57	2.5119	24339.8	6438.84	25177	14.8176	127.717
58	1.9953	25243.3	7133.04	26231.7	15.7788	130.387
59	1.5849	26160.7	8278.64	27439.4	17.5601	133.182
60	1.2589	26768.4	8604.48	28117.3	17.8196	136.052
61	1	27976.7	10163.8	29765.7	19.9658	142.877
62	0.79433	29145.5	11463	31318.7	21.4698	146.082
63	0.63096	30344.4	12932.4	32985.3	23.0832	149.583
64	0.50119	31709.2	14668.7	34937.7	24.8252	153.643
65	0.39811	33251.8	16632.3	37179.5	26.5739	157.968
66	0.31623	34987.8	18966.1	39797.7	28.4611	163.088
67	0.25119	37148.2	21846.1	43095.7	30.459	168.683
68	0.19953	39273.8	25046.2	46580.5	32.527	175.173
69	0.15849	41861.5	28754.5	50785.9	34.485	182.623
70	0.12589	45029.7	32846.5	55736.5	36.1085	191.308
71	0.1	47858.5	37696.4	60921.7	38.2262	201.659