Folder: Streamlit_cement_impedance/data/20200826 (part 4)

File: Z_p47_1.txt
Index	Frequency (Hz)	Z' (Ω)	-Z'' (Ω)	Z (Ω)	-Phase (°)	Time (s)
1	1000000	2291.98	1520.03	2750.21	33.5521	76.8232
2	794330	2525.13	1411.43	2892.82	29.2032	78.2582
3	630960	2777.65	1343.87	3085.67	25.8184	79.6533
4	501190	3039.39	1248.08	3285.66	22.3247	81.1733
5	398110	3272.69	1124.79	3460.58	18.9674	85.4334
6	316230	3464.47	1019.85	3611.46	16.4031	86.7484
7	251190	3566.38	886.903	3675.01	13.9653	90.8435
8	199530	3716.83	798.656	3801.67	12.1271	92.2335
9	158490	3837.54	709.122	3902.51	10.4693	93.5335
10	125890	3935.33	623.19	3984.37	8.99851	94.7685
11	100000	4008.7	544.293	4045.49	7.73221	96.2336
12	79433	4071.61	473.049	4098.99	6.62705	97.5386
13	63096	4121.58	411.085	4142.03	5.69582	98.8636
14	50119	4163.88	357.106	4179.16	4.90185	100.169
15	39811	4197.9	311.243	4209.42	4.2403	101.574
16	31623	4225.87	271.523	4234.58	3.67635	102.934
17	25119	4250.63	240.573	4257.43	3.23931	104.219
18	19953	4273.32	214.826	4278.71	2.87792	105.494
19	15849	4293.52	192.661	4297.84	2.56928	106.809
20	12589	4312.12	175.149	4315.68	2.32596	108.149
21	10000	4330.5	161.095	4333.5	2.13042	109.484
22	7943.3	4346.69	149.575	4349.26	1.97084	110.834
23	6309.6	4362.38	140.214	4364.63	1.84094	112.079
24	5011.9	4379.19	133.211	4381.21	1.74235	113.389
25	3981.1	4392.71	127.2	4394.56	1.65866	114.729
26	3162.3	4410.23	122.397	4411.93	1.58972	116.004
27	2511.9	4425.1	118.491	4426.69	1.53384	117.289
28	1995.3	4440.17	115.06	4441.66	1.4844	118.734
29	1584.9	4453.92	112.505	4455.34	1.44697	119.834
30	1258.9	4468.75	110.428	4470.11	1.41555	121.089
31	1000	4482.86	108.117	4484.16	1.38159	122.324
32	794.33	4497.83	105.996	4499.08	1.34998	123.694
33	630.96	4512.21	104.586	4513.42	1.32779	124.969
34	501.19	4527.12	102.903	4528.29	1.30213	126.304
35	398.11	4543.3	101.742	4544.44	1.28286	127.549
36	316.23	4558.93	100.804	4560.04	1.26668	128.899
37	251.19	4571.14	101.233	4572.26	1.26867	130.219
38	199.53	4587.4	100.672	4588.5	1.25717	131.439
39	158.49	4601.22	101.612	4602.34	1.26509	132.704
40	125.89	4615.32	103.345	4616.48	1.28273	134.079
41	100	4626.87	104.801	4628.06	1.29756	135.469
42	79.433	4641.85	106.91	4643.08	1.31939	136.874
43	63.096	4655.22	110.694	4656.54	1.36215	138.369
44	50.119	4666.8	105.623	4668	1.29655	139.799
45	39.811	4685.32	119.904	4686.86	1.46596	148.845
46	31.623	4697.9	125.751	4699.58	1.53329	150.55
47	25.119	4713.16	132.23	4715.02	1.60704	152.19
48	19.953	4729.01	141.617	4731.13	1.71529	154.065
49	15.849	4745.28	151.896	4747.71	1.83341	155.97
50	12.589	4762.67	167.139	4765.6	2.00989	158.025
51	10	4779.13	183.268	4782.64	2.19608	160.275
52	7.9433	4796.67	201.41	4800.9	2.40441	162.58
53	6.3096	4818.95	225.423	4824.22	2.67825	164.99
54	5.0119	4839.11	256.613	4845.91	3.03549	167.42
55	3.9811	4857.99	290.028	4866.64	3.41657	169.78
56	3.1623	4882.67	334.221	4894.1	3.91581	172.325
57	2.5119	4906.06	382.362	4920.94	4.45643	174.915
58	1.9953	4936.26	441.999	4956.01	5.11669	177.615
59	1.5849	4952.87	553.864	4983.74	6.3807	180.49
60	1.2589	4997.88	641.974	5038.94	7.31952	183.355
61	1	5050.03	731.25	5102.69	8.23924	188.46
62	0.79433	5107.04	861.645	5179.22	9.57658	191.575
63	0.63096	5154.86	1030.61	5256.88	11.306	195.055
64	0.50119	5209	1216.3	5349.12	13.143	198.805
65	0.39811	5281.68	1467.27	5481.7	15.5255	203.011
66	0.31623	5333.17	1764.2	5617.39	18.3041	207.766
67	0.25119	5457.03	2155.65	5867.36	21.5552	213.216
68	0.19953	5552.19	2624.02	6141.03	25.2959	219.486
69	0.15849	5687.44	3167.93	6510.21	29.118	226.776
70	0.12589	5791.32	3793.85	6923.34	33.2285	235.391
71	0.1	5898.35	4733.5	7562.84	38.7475	245.591

File: Z_p48_1.txt
Index	Frequency (Hz)	Z' (Ω)	-Z'' (Ω)	Z (Ω)	-Phase (°)	Time (s)
1	1000000	1956.25	1328.6	2364.76	34.1827	17.2591
2	794330	2156.54	1264.84	2500.1	30.3922	19.0891
3	630960	2392.92	1224.15	2687.86	27.0931	20.8742
4	501190	2622.88	1156.94	2866.71	23.8021	22.7442
5	398110	2838.71	1061.58	3030.71	20.504	27.6143
6	316230	3026.29	979.233	3180.77	17.9303	29.3694
7	251190	3130.32	861.648	3246.74	15.39	34.4444
8	199530	3278.99	784.648	3371.56	13.4576	36.0945
9	158490	3400.08	703.634	3472.13	11.6921	37.7445
10	125890	3500	624.202	3555.22	10.112	39.3995
11	100000	3581.12	549.843	3623.09	8.72898	40.9595
12	79433	3646.14	482.062	3677.87	7.53148	43.1046
13	63096	3699.13	421.521	3723.06	6.50091	44.7746
14	50119	3746.6	369.395	3764.76	5.63086	46.3946
15	39811	3782.02	322.809	3795.77	4.87858	47.9897
16	31623	3814.3	283.039	3824.79	4.24383	49.5847
17	25119	3839.36	251.691	3847.6	3.75069	51.1997
18	19953	3863.53	224.781	3870.07	3.32973	53.0598
19	15849	3886.7	202.166	3891.96	2.97754	54.7498
20	12589	3906.39	183.855	3910.72	2.69464	56.5098
21	10000	3926.09	168.952	3929.73	2.46409	58.3049
22	7943.3	3944.63	157.188	3947.76	2.28196	59.8299
23	6309.6	3961.36	147.21	3964.1	2.12821	61.9099
24	5011.9	3976.15	139.636	3978.6	2.01131	63.515
25	3981.1	3991.91	134.059	3994.16	1.92343	65.16
26	3162.3	4006.73	129.936	4008.84	1.85741	66.74
27	2511.9	4021.43	126.655	4023.42	1.80394	68.2551
28	1995.3	4038.13	124.966	4040.06	1.77254	69.7951
29	1584.9	4053.45	124.407	4055.36	1.75794	71.5101
30	1258.9	4068.73	124.203	4070.63	1.74848	72.8951
31	1000	4085.2	124.596	4087.1	1.74694	74.8552
32	794.33	4098.6	125.526	4100.53	1.75422	76.4552
33	630.96	4116.56	127.236	4118.53	1.77035	78.3102
34	501.19	4132.34	129.965	4134.38	1.8014	79.9203
35	398.11	4150.79	133.684	4152.94	1.84468	81.5003
36	316.23	4168.78	137.994	4171.07	1.8959	83.1503
37	251.19	4186.31	143.911	4188.78	1.96886	84.6454
38	199.53	4203.94	150.911	4206.65	2.0559	86.2604
39	158.49	4225.7	160.435	4228.75	2.17427	87.8054
40	125.89	4246.72	172.152	4250.2	2.32136	89.4554
41	100	4265.38	185.082	4269.39	2.4846	90.8755
42	79.433	4286.24	201.562	4290.98	2.69237	92.6155
43	63.096	4312.26	220.709	4317.9	2.92994	94.2355
44	50.119	4341.36	248.66	4348.48	3.27814	96.0256
45	39.811	4368.59	267.495	4376.77	3.50393	105.446
46	31.623	4401.9	294.771	4411.76	3.83107	107.406
47	25.119	4434.23	327.934	4446.34	4.22962	109.296
48	19.953	4475.74	363.339	4490.46	4.64108	111.456
49	15.849	4521.7	408.217	4540.09	5.15865	113.946
50	12.589	4573.2	451.792	4595.46	5.64201	116.421
51	10	4630.39	501.841	4657.5	6.18556	119.126
52	7.9433	4696.66	557.059	4729.58	6.76411	121.971
53	6.3096	4763.68	620.344	4803.9	7.41953	124.606
54	5.0119	4840.29	686.426	4888.72	8.07159	127.261
55	3.9811	4922.21	760.33	4980.59	8.78104	129.961
56	3.1623	5009.58	841.849	5079.82	9.5393	133.016
57	2.5119	5120.69	937.714	5205.84	10.3772	135.891
58	1.9953	5212.09	1039.59	5314.76	11.28	139.016
59	1.5849	5327.13	1152.58	5450.39	12.2084	141.951
60	1.2589	5427.53	1346.4	5592.03	13.932	145.291
61	1	5547.73	1511.15	5749.86	15.2372	150.907
62	0.79433	5690.01	1723.92	5945.43	16.8554	154.527
63	0.63096	5834.59	1986.48	6163.49	18.802	158.567
64	0.50119	5981.74	2313.1	6413.4	21.1412	162.692
65	0.39811	6134.63	2684.89	6696.44	23.6371	167.392
66	0.31623	6336.61	3163.55	7082.42	26.5307	172.807
67	0.25119	6526.25	3734.89	7519.39	29.7819	178.887
68	0.19953	6818.53	4461.08	8148.23	33.195	185.492
69	0.15849	7115.19	5319.16	8883.66	36.781	193.147
70	0.12589	7432.82	6310.27	9750.19	40.3304	202.168
71	0.1	7702.54	7588.08	10812.4	44.5711	212.798

File: Z_p49_1.txt
Index	Frequency (Hz)	Z' (Ω)	-Z'' (Ω)	Z (Ω)	-Phase (°)	Time (s)
1	1000000	1983.43	1342.54	2395.08	34.0932	15.2221
2	794330	2180.97	1267.99	2522.78	30.1733	16.6221
3	630960	2414.4	1229.78	2709.55	26.9921	18.1021
4	501190	2641.23	1170.79	2889.1	23.9065	19.6872
5	398110	2859	1071.33	3053.13	20.542	24.0072
6	316230	3046.5	997.162	3205.55	18.124	25.3523
7	251190	3155.11	880.726	3275.73	15.5967	29.5373
8	199530	3307.53	809.513	3405.15	13.7527	30.9874
9	158490	3432.79	734.063	3510.4	12.0702	32.4124
10	125890	3539.42	659.788	3600.4	10.5594	33.7224
11	100000	3623.76	588.954	3671.31	9.23131	35.1074
12	79433	3696.93	524.958	3734.02	8.08187	36.4475
13	63096	3760.12	467.248	3789.04	7.08351	37.7825
14	50119	3811.75	417.738	3834.57	6.25422	39.1725
15	39811	3856.35	373.773	3874.42	5.53605	40.4575
16	31623	3895.82	336.779	3910.35	4.94071	41.7276
17	25119	3929.27	308.069	3941.32	4.48303	43.0626
18	19953	3963	284.083	3973.17	4.10016	44.3126
19	15849	3990.88	264.989	3999.67	3.79878	45.6326
20	12589	4019.38	250.423	4027.18	3.56514	46.9877
21	10000	4047.56	238.718	4054.59	3.3753	48.3427
22	7943.3	4074.03	231.995	4080.63	3.25919	49.7427
23	6309.6	4102.81	227.773	4109.13	3.17759	51.1527
24	5011.9	4130.17	225.693	4136.33	3.12781	52.5478
25	3981.1	4158.43	226.094	4164.58	3.11211	53.8428
26	3162.3	4183.39	228.21	4189.61	3.12247	55.1678
27	2511.9	4213.79	232.395	4220.19	3.15673	56.4878
28	1995.3	4244.21	238.37	4250.9	3.21456	57.8329
29	1584.9	4275.23	245.434	4282.27	3.28564	59.0929
30	1258.9	4306.49	254.242	4313.99	3.37865	60.3879
31	1000	4338.65	264.453	4346.7	3.48802	61.6729
32	794.33	4375.7	276.569	4384.43	3.61661	63.058
33	630.96	4411.6	290.263	4421.14	3.76438	64.368
34	501.19	4452.11	305.611	4462.59	3.92686	65.848
35	398.11	4493.28	323.914	4504.94	4.12323	67.188
36	316.23	4537.29	343.362	4550.26	4.32765	68.5481
37	251.19	4584.73	366.635	4599.37	4.57213	69.8981
38	199.53	4632.99	392.265	4649.56	4.83956	71.1881
39	158.49	4688.58	421.842	4707.52	5.14118	72.4931
40	125.89	4745.62	453.587	4767.24	5.45976	73.8782
41	100	4807	489.308	4831.84	5.81217	75.2532
42	79.433	4875.31	527.879	4903.81	6.17968	76.7232
43	63.096	4946.26	569.554	4978.94	6.56859	78.2832
44	50.119	5023.91	617.571	5061.73	7.008	79.7783
45	39.811	5113.6	662.16	5156.29	7.37818	88.9134
46	31.623	5205.97	711.863	5254.41	7.78632	90.5135
47	25.119	5304.83	766.254	5359.89	8.21921	92.1435
48	19.953	5415.02	822.111	5477.07	8.63275	94.0985
49	15.849	5527.61	883.492	5597.77	9.08093	96.0686
50	12.589	5649.69	945.414	5728.25	9.4998	98.0936
51	10	5778.9	1013.72	5867.14	9.9494	100.409
52	7.9433	5913.37	1085.97	6012.26	10.4063	102.704
53	6.3096	6057.56	1168.39	6169.21	10.9172	105.139
54	5.0119	6203.73	1258.45	6330.09	11.4671	107.619
55	3.9811	6360.96	1363.16	6505.39	12.0956	110.024
56	3.1623	6531.26	1479.73	6696.79	12.7655	112.514
57	2.5119	6685.65	1622.42	6879.69	13.6404	115.129
58	1.9953	6836.17	1736.24	7053.21	14.2506	117.779
59	1.5849	7094.98	1966.11	7362.36	15.4888	120.539
60	1.2589	7319.24	2176.27	7635.93	16.5591	123.449
61	1	7538.71	2451.01	7927.14	18.0105	128.454
62	0.79433	7809.54	2762.33	8283.68	19.4793	131.699
63	0.63096	8092.5	3109.94	8669.5	21.0218	135.294
64	0.50119	8404.33	3554.33	9125.02	22.9243	139.064
65	0.39811	8751.5	4063.16	9648.73	24.9046	143.264
66	0.31623	9197.9	4677.67	10319	26.956	148.1
67	0.25119	9663.07	5328.43	11034.8	28.8733	153.54
68	0.19953	10232.9	6122.92	11924.8	30.8946	159.78
69	0.15849	10849.9	7060.41	12944.9	33.0535	167.055
70	0.12589	11664.7	8212.54	14265.8	35.1474	175.63
71	0.1	12558.2	9310.43	15633	36.5526	185.835

File: Z_p50_1.txt
Index	Frequency (Hz)	Z' (Ω)	-Z'' (Ω)	Z (Ω)	-Phase (°)	Time (s)
1	1000000	2492.57	1880.69	3122.48	37.0352	19.9352
2	794330	2803.62	1778.79	3320.3	32.3936	21.7702
3	630960	3140.14	1709.13	3575.14	28.5588	23.4753
4	501190	3486.33	1619.83	3844.26	24.9206	25.3503
5	398110	3801.73	1506.56	4089.36	21.6176	30.5554
6	316230	4063.19	1397.21	4296.71	18.9766	32.4004
7	251190	4227.4	1234.76	4404.04	16.2822	37.5955
8	199530	4440.48	1129.59	4581.9	14.2724	39.1705
9	158490	4619.55	1018.13	4730.42	12.4291	40.8906
10	125890	4766.56	908.248	4852.32	10.7882	42.5356
11	100000	4882.99	803.526	4948.66	9.34463	44.4856
12	79433	4982.21	708.231	5032.29	8.09051	46.1557
13	63096	5063.47	623.76	5101.74	7.02279	48.1857
14	50119	5130.09	547.427	5159.22	6.09093	49.8357
15	39811	5186.43	481.431	5208.72	5.3033	51.6908
16	31623	5235.04	425.811	5252.32	4.65013	53.6608
17	25119	5276.73	380.666	5290.44	4.1262	55.4658
18	19953	5312.15	341.33	5323.1	3.67646	57.1759
19	15849	5346.95	308.918	5355.87	3.30656	59.0259
20	12589	5378.79	282.085	5386.18	3.00207	60.9359
21	10000	5406.8	261.445	5413.12	2.76837	62.686
22	7943.3	5438.07	245.024	5443.59	2.57984	64.266
23	6309.6	5464.05	230.677	5468.92	2.41743	65.966
24	5011.9	5489.72	220.455	5494.15	2.29964	67.8961
25	3981.1	5517.64	212.39	5521.72	2.20439	69.6111
26	3162.3	5539.14	206.266	5542.98	2.13259	71.4211
27	2511.9	5563.42	202.584	5567.11	2.08542	73.1012
28	1995.3	5594.51	199.756	5598.07	2.04492	75.1712
29	1584.9	5616.04	199.17	5619.57	2.03112	76.9012
30	1258.9	5641.84	198.93	5645.35	2.0194	78.5563
31	1000	5669.2	199.976	5672.72	2.02022	80.2463
32	794.33	5693.69	202.264	5697.28	2.03453	82.1463
33	630.96	5720.73	205.463	5724.42	2.05692	84.0314
34	501.19	5750.5	210.459	5754.35	2.096	85.7464
35	398.11	5775.89	216.834	5779.95	2.14994	87.6514
36	316.23	5807.78	225.66	5812.16	2.2251	89.8965
37	251.19	5836.44	235.169	5841.18	2.30738	91.7015
38	199.53	5865.72	246.817	5870.91	2.40946	93.5666
39	158.49	5896.65	262.464	5902.49	2.54859	95.2916
40	125.89	5932.32	280.061	5938.93	2.70289	96.9966
41	100	5966.62	301.348	5974.23	2.89131	98.6566
42	79.433	6002.82	325.93	6011.66	3.10788	100.732
43	63.096	6043.62	354.234	6054	3.35443	102.872
44	50.119	6080.12	388.079	6092.49	3.65209	104.677
45	39.811	6137.5	420.146	6151.86	3.91611	114.017
46	31.623	6193.01	463.626	6210.34	4.28133	116.262
47	25.119	6246.31	508.379	6266.96	4.65298	118.327
48	19.953	6313.48	559.25	6338.2	5.06207	120.722
49	15.849	6383.24	620.195	6413.29	5.54944	123.047
50	12.589	6453.32	687.443	6489.83	6.08052	125.502
51	10	6540.32	762	6584.56	6.64546	128.067
52	7.9433	6642.79	845.756	6696.42	7.25582	130.837
53	6.3096	6738.15	937.455	6803.05	7.92051	133.542
54	5.0119	6852.76	1047.47	6932.35	8.69058	136.377
55	3.9811	6965.34	1162.5	7061.69	9.47522	139.252
56	3.1623	7097.15	1301.51	7215.5	10.3917	142.137
57	2.5119	7231.93	1451.82	7376.22	11.3513	145.103
58	1.9953	7367.03	1656.86	7551.05	12.6751	148.528
59	1.5849	7592.06	1846.25	7813.32	13.6679	151.763
60	1.2589	7744.53	2114.39	8027.98	15.2706	155.033
61	1	7936.05	2429.61	8299.63	17.0219	160.773
62	0.79433	8181.87	2798.27	8647.16	18.8811	164.468
63	0.63096	8432.39	3228.58	9029.34	20.9507	168.403
64	0.50119	8706.77	3754.84	9481.91	23.3284	172.573
65	0.39811	9021.6	4355.59	10018	25.7711	177.133
66	0.31623	9427.25	5093.66	10715.3	28.3829	182.503
67	0.25119	9848.48	5959.79	11511.4	31.1802	188.668
68	0.19953	10432.6	7054.77	12594	34.0674	195.608
69	0.15849	11046.3	8291.28	13811.8	36.8916	203.474
70	0.12589	11835.2	9700.81	15302.8	39.3401	212.489
71	0.1	12615.3	11282.1	16924.2	41.8069	223.129

File: Z_p51_1.txt
Index	Frequency (Hz)	Z' (Ω)	-Z'' (Ω)	Z (Ω)	-Phase (°)	Time (s)
1	1000000	2110.6	1442.77	2556.6	34.3558	17.0571
2	794330	2330.76	1353.17	2695.09	30.1383	18.8121
3	630960	2578.9	1301.2	2888.57	26.7735	20.4572
4	501190	2823.68	1229.81	3079.87	23.5349	22.1322
5	398110	3059.22	1117.19	3256.83	20.0616	26.9923
6	316230	3253.61	1033.95	3413.95	17.6295	28.4823
7	251190	3356.39	901.549	3475.36	15.0351	33.3174
8	199530	3511.35	821.194	3606.1	13.1631	35.1024
9	158490	3637.02	737.774	3711.1	11.4669	36.7875
10	125890	3742.74	656.403	3799.86	9.9474	38.3375
11	100000	3825.97	579.258	3869.57	8.6093	39.8825
12	79433	3896.76	509.689	3929.95	7.45188	41.6776
13	63096	3953.91	447.773	3979.18	6.46112	43.2126
14	50119	4001.51	392.181	4020.68	5.59759	44.7626
15	39811	4043.36	344.282	4057.99	4.86685	46.3126
16	31623	4076.65	301.695	4087.79	4.23249	47.9727
17	25119	4105.65	268.015	4114.39	3.73495	49.6077
18	19953	4132.15	239.949	4139.11	3.32337	51.3127
19	15849	4157.27	215.321	4162.84	2.96492	52.9478
20	12589	4176.43	194.464	4180.96	2.6659	54.4978
21	10000	4197.8	178.469	4201.59	2.43446	56.1128
22	7943.3	4214.58	165.127	4217.81	2.2437	57.7279
23	6309.6	4233.21	154.127	4236.02	2.08515	59.3879
24	5011.9	4250.78	145.517	4253.27	1.96064	60.9479
25	3981.1	4266.07	139.086	4268.33	1.86735	62.583
26	3162.3	4283.17	134.24	4285.27	1.79514	64.193
27	2511.9	4296.93	130.758	4298.92	1.743	65.823
28	1995.3	4312.59	129.264	4314.52	1.71685	67.473
29	1584.9	4325.79	128.196	4327.68	1.69748	68.8631
30	1258.9	4342.4	128.717	4344.31	1.69786	70.3981
31	1000	4358.32	130.407	4360.27	1.71385	72.0381
32	794.33	4372.57	132.611	4374.58	1.73714	73.8732
33	630.96	4391.57	136.618	4393.7	1.78184	75.3182
34	501.19	4406.07	141.019	4408.33	1.83316	77.0082
35	398.11	4424.76	147.308	4427.21	1.90677	78.7482
36	316.23	4445.56	155.804	4448.29	2.00723	80.3033
37	251.19	4463.18	165.15	4466.23	2.11913	82.0933
38	199.53	4482.88	177.201	4486.38	2.26363	83.6733
39	158.49	4506.81	191.406	4510.87	2.43192	85.2384
40	125.89	4530.16	208.278	4534.94	2.63237	87.0284
41	100	4554.02	227.464	4559.7	2.85943	88.7684
42	79.433	4582.95	250.537	4589.79	3.12908	90.4985
43	63.096	4611.86	277.584	4620.2	3.44443	92.3185
44	50.119	4635.36	292.716	4644.59	3.61334	93.9385
45	39.811	4679.71	339.188	4691.98	4.14558	103.609
46	31.623	4719.98	380.191	4735.27	4.60518	105.524
47	25.119	4767.59	421.989	4786.23	5.05819	107.324
48	19.953	4818.41	473.42	4841.62	5.61142	109.554
49	15.849	4869.56	532.309	4898.57	6.23843	111.789
50	12.589	4928.96	598.035	4965.11	6.91794	114.214
51	10	4998.36	670.553	5043.14	7.64087	116.834
52	7.9433	5073.69	757.634	5129.94	8.493	119.384
53	6.3096	5154.12	855.862	5224.7	9.42815	121.984
54	5.0119	5248.36	969.749	5337.2	10.4686	124.759
55	3.9811	5345.72	1100.26	5457.78	11.6303	127.419
56	3.1623	5461.38	1252.91	5603.25	12.9208	130.264
57	2.5119	5583.95	1431.05	5764.41	14.3743	133.209
58	1.9953	5712.81	1647.23	5945.55	16.0843	136.139
59	1.5849	5860.44	1846.69	6144.51	17.4903	139.179
60	1.2589	6030.03	2161.22	6405.63	19.7181	142.229
61	1	6222.18	2524.31	6714.73	22.0822	147.795
62	0.79433	6443.64	2939.45	7082.43	24.5215	151.255
63	0.63096	6664.32	3424.23	7492.56	27.1948	154.865
64	0.50119	6924	4010.84	8001.79	30.0823	159.11
65	0.39811	7215.19	4755.76	8641.54	33.3902	163.505
66	0.31623	7546.64	5630.26	9415.5	36.7252	168.6
67	0.25119	7887.95	6650.75	10317.6	40.136	174.19
68	0.19953	8360.86	7903.33	11505.1	43.3886	180.745
69	0.15849	8853.45	9428.36	12933.6	46.8012	188.255
70	0.12589	9344.95	11280.2	14648.2	50.3602	197.2
71	0.1	10005.1	13670.6	16940.7	53.8007	207.611

File: Z_p52_1.txt
Index	Frequency (Hz)	Z' (Ω)	-Z'' (Ω)	Z (Ω)	-Phase (°)	Time (s)
1	1000000	2661.64	1838.75	3235.02	34.6379	13.628
2	794330	2937.22	1685.85	3386.65	29.8542	15.3781
3	630960	3256.04	1595.34	3625.87	26.1032	17.0281
4	501190	3559.51	1483.59	3856.31	22.6262	18.9281
5	398110	3858.56	1335.25	4083.06	19.0881	29.3833
6	316230	4084.01	1217.07	4261.5	16.5946	30.9684
7	251190	4206.42	1047.67	4334.93	13.9858	35.9035
8	199530	4382.42	940.881	4482.28	12.1171	37.6935
9	158490	4524.12	833.614	4600.28	10.4402	39.4485
10	125890	4636.7	730.419	4693.88	8.95222	41.3686
11	100000	4722.68	634.372	4765.09	7.65045	43.0786
12	79433	4794.8	550.555	4826.31	6.5502	44.8786
13	63096	4853.86	475.886	4877.14	5.59954	46.5537
14	50119	4899.29	411.537	4916.55	4.80153	48.2337
15	39811	4940.73	354.758	4953.45	4.10695	49.7987
16	31623	4970.89	308.25	4980.44	3.54842	51.4737
17	25119	4996	269.323	5003.25	3.0857	53.1038
18	19953	5021.56	238.865	5027.24	2.72339	54.6438
19	15849	5042.49	213.732	5047.01	2.4271	56.3138
20	12589	5062.67	191.239	5066.28	2.16328	57.9339
21	10000	5079.53	174.701	5082.54	1.96981	59.7239
22	7943.3	5101.28	160.514	5103.81	1.80224	61.2189
23	6309.6	5115.95	148.804	5118.11	1.66605	62.869
24	5011.9	5131.54	139.355	5133.43	1.55557	64.519
25	3981.1	5147.81	131.876	5149.5	1.46747	66.164
26	3162.3	5163.09	126.608	5164.64	1.40472	67.849
27	2511.9	5173.51	121.914	5174.94	1.34993	69.6541
28	1995.3	5190.63	117.904	5191.97	1.30124	71.1691
29	1584.9	5202.45	114.612	5203.71	1.26204	72.6891
30	1258.9	5219.86	112.121	5221.06	1.23051	74.2942
31	1000	5232.62	111.04	5233.79	1.21567	76.0192
32	794.33	5245.24	109.348	5246.38	1.19428	77.8792
33	630.96	5262.3	108.194	5263.41	1.17784	79.4393
34	501.19	5275.78	108.16	5276.89	1.17447	81.1293
35	398.11	5290.85	108.544	5291.96	1.17529	82.8043
36	316.23	5302.86	109.233	5303.98	1.18007	84.3694
37	251.19	5318.17	111.745	5319.34	1.20372	85.9894
38	199.53	5333.38	115.396	5334.63	1.23949	87.6694
39	158.49	5346.75	119.346	5348.08	1.2787	89.2994
40	125.89	5360.02	125.797	5361.49	1.34445	90.8895
41	100	5377.58	134.064	5379.25	1.4281	92.5145
42	79.433	5395.37	143.614	5397.29	1.52474	94.1545
43	63.096	5410.18	153.473	5412.36	1.6249	95.8046
44	50.119	5419.13	183.748	5422.25	1.942	97.5496
45	39.811	5445.11	187.333	5448.33	1.97042	106.815
46	31.623	5469.25	203.736	5473.05	2.13334	108.68
47	25.119	5491.81	225.775	5496.45	2.35417	110.65
48	19.953	5516.71	252.603	5522.49	2.62166	112.755
49	15.849	5545.01	282.432	5552.2	2.91581	115.12
50	12.589	5574.45	315.537	5583.37	3.23973	117.355
51	10	5604.67	355.796	5615.95	3.63238	120.085
52	7.9433	5643.32	404.193	5657.77	4.09671	122.715
53	6.3096	5684.88	461.906	5703.61	4.64517	125.39
54	5.0119	5722.3	524.518	5746.29	5.23722	128.115
55	3.9811	5773.25	602.61	5804.61	5.95894	130.79
56	3.1623	5826.54	693.952	5867.72	6.79204	133.43
57	2.5119	5871.66	808.434	5927.05	7.83943	136.12
58	1.9953	5906.91	978.062	5987.33	9.4017	139.015
59	1.5849	6015.63	1154.98	6125.5	10.8683	142.04
60	1.2589	6093.87	1321.79	6235.57	12.2381	145.12
61	1	6178.09	1518.77	6362.03	13.8113	150.611
62	0.79433	6294.34	1798.24	6546.17	15.9442	154.226
63	0.63096	6392.82	2126.08	6737.09	18.3957	157.956
64	0.50119	6503.9	2542.17	6983.08	21.349	161.971
65	0.39811	6668.14	3075.82	7343.35	24.7625	166.501
66	0.31623	6836.09	3686.44	7766.72	28.3363	171.441
67	0.25119	6986.4	4472.9	8295.58	32.6286	177.131
68	0.19953	7258	5368.86	9027.91	36.4909	183.886
69	0.15849	7537.72	6493.3	9948.87	40.7429	191.351
70	0.12589	7800.66	7898.78	11101.4	45.3581	200.276
71	0.1	8193.6	9706.53	12702.4	49.8312	210.802

File: Z_p53_1.txt
Index	Frequency (Hz)	Z' (Ω)	-Z'' (Ω)	Z (Ω)	-Phase (°)	Time (s)
1	1000000	2901.36	2240.79	3665.93	37.6799	13.935
2	794330	3263.11	2074.63	3866.78	32.4475	15.2351
3	630960	3660.64	1981.58	4162.56	28.4276	16.6101
4	501190	4054.71	1888.05	4472.74	24.9687	18.0751
5	398110	4462.43	1728.53	4785.51	21.174	22.1002
6	316230	4756.58	1591.63	5015.81	18.5011	23.3802
7	251190	4944.39	1399.42	5138.62	15.8032	27.5353
8	199530	5184	1273.14	5338.04	13.7982	28.8603
9	158490	5378.4	1140.98	5498.09	11.9772	30.1403
10	125890	5540.74	1011.39	5632.29	10.3447	31.4304
11	100000	5670.78	889.493	5740.11	8.91452	32.8504
12	79433	5778.03	777.597	5830.12	7.66472	34.1504
13	63096	5862.92	678.645	5902.06	6.60272	35.5304
14	50119	5937.58	591.859	5967.01	5.69245	36.9955
15	39811	5996.44	512.364	6018.29	4.88376	38.3505
16	31623	6047.01	444.898	6063.36	4.20785	39.6055
17	25119	6083.3	393.151	6095.99	3.69776	40.9355
18	19953	6119.23	347.391	6129.08	3.24921	42.2656
19	15849	6151.54	308.376	6159.26	2.86983	43.5906
20	12589	6180.73	277.474	6186.96	2.57048	44.8956
21	10000	6207.41	250.785	6212.47	2.31355	46.2406
22	7943.3	6235.4	228.358	6239.58	2.0974	47.5607
23	6309.6	6257.55	212.028	6261.14	1.94064	48.8907
24	5011.9	6279.58	197.951	6282.7	1.80553	50.2157
25	3981.1	6300.43	186.742	6303.2	1.69773	51.5207
26	3162.3	6322.2	177.06	6324.68	1.60421	52.8058
27	2511.9	6342.56	170.947	6344.86	1.54389	54.2058
28	1995.3	6361.74	164.833	6363.87	1.4842	55.4708
29	1584.9	6382.49	161.145	6384.53	1.44629	56.7408
30	1258.9	6399.42	158.074	6401.37	1.41499	58.0359
31	1000	6421.44	155.679	6423.32	1.38878	59.3559
32	794.33	6440.87	155.091	6442.74	1.37937	60.7459
33	630.96	6461.62	155.155	6463.48	1.37551	62.0709
34	501.19	6481.17	155.821	6483.04	1.37725	63.416
35	398.11	6500.72	158.805	6502.66	1.39939	64.681
36	316.23	6523.14	162.1	6525.15	1.42351	65.981
37	251.19	6543.79	168.077	6545.94	1.47132	67.361
38	199.53	6563.9	176.019	6566.26	1.53609	68.6511
39	158.49	6585.88	185.132	6588.48	1.61018	70.0311
40	125.89	6609.73	197.439	6612.67	1.71097	71.4211
41	100	6630.16	213.559	6633.6	1.84487	72.7811
42	79.433	6653.37	229.245	6657.32	1.97337	74.2112
43	63.096	6684.7	248.13	6689.3	2.12579	75.6562
44	50.119	6677.28	252.193	6682.04	2.16296	77.1412
45	39.811	6747.5	301.833	6754.25	2.56128	86.2714
46	31.623	6781.99	332.179	6790.12	2.80408	88.0764
47	25.119	6820.41	366.706	6830.26	3.0776	89.8015
48	19.953	6863.61	410.372	6875.87	3.42161	91.7315
49	15.849	6913.27	453.794	6928.15	3.75556	93.6815
50	12.589	6963.29	508.09	6981.8	4.1733	95.7216
51	10	7020.51	563.842	7043.11	4.59177	98.0616
52	7.9433	7081.26	632.679	7109.46	5.10557	100.342
53	6.3096	7145.7	711.648	7181.05	5.6874	102.812
54	5.0119	7214.96	805.471	7259.78	6.37007	105.272
55	3.9811	7292.98	917.438	7350.46	7.17	107.717
56	3.1623	7366.73	1048.66	7440.99	8.10165	110.257
57	2.5119	7466.95	1186.88	7560.69	9.0317	112.997
58	1.9953	7549.05	1364.45	7671.37	10.2453	115.567
59	1.5849	7657.17	1578.21	7818.12	11.6461	118.352
60	1.2589	7761.6	1912.39	7993.72	13.8415	121.222
61	1	7908.92	2257.15	8224.7	15.9284	126.302
62	0.79433	8070.84	2679.91	8504.14	18.3687	129.532
63	0.63096	8232.89	3162.15	8819.27	21.0112	133.037
64	0.50119	8409.99	3800.4	9228.81	24.3178	136.882
65	0.39811	8626.33	4548.43	9752.01	27.8014	141.107
66	0.31623	8932.25	5511.86	10496	31.6777	145.822
67	0.25119	9228.63	6577.99	11333	35.4805	151.278
68	0.19953	9655.97	7899.32	12475.5	39.2858	157.618
69	0.15849	10089.8	9531.07	13879.7	43.3688	164.963
70	0.12589	10647.9	11613.6	15756.1	47.4838	173.473
71	0.1	11442.5	13896.6	18001.3	50.5319	183.678