Folder: Streamlit_cement_impedance/data/20200619 (part 12)

File: Z_p43_2.txt
Index	Frequency (Hz)	Z' (Ω)	-Z'' (Ω)	Z (Ω)	-Phase (°)	Time (s)
1	1000000	2744.66	2010.63	3402.32	36.225	458.105
2	794330	3031.63	1849.83	3551.43	31.3905	459.415
3	630960	3376.15	1761.54	3808.07	27.5537	460.84
4	501190	3712.45	1690.04	4079.03	24.4767	462.37
5	398110	4054.76	1566.08	4346.69	21.1182	467.36
6	316230	4331.64	1467.63	4573.51	18.7172	468.69
7	251190	4496.77	1290.25	4678.21	16.0096	472.655
8	199530	4718.56	1192.54	4866.93	14.1836	474.05
9	158490	4907.83	1086.83	5026.73	12.4866	475.46
10	125890	5063.41	982.594	5157.87	10.9822	476.715
11	100000	5195.76	883.23	5270.29	9.64753	478.1
12	79433	5302.85	787.749	5361.04	8.44962	479.41
13	63096	5405.61	709.491	5451.97	7.47738	480.8
14	50119	5490.73	634.403	5527.26	6.59077	482.091
15	39811	5563.83	568.402	5592.79	5.8331	483.456
16	31623	5625.08	508.651	5648.03	5.16694	484.741
17	25119	5678.54	461.676	5697.28	4.64804	486.066
18	19953	5728.1	419.627	5743.45	4.18987	487.441
19	15849	5776.02	383.992	5788.77	3.80345	488.831
20	12589	5818.2	353.99	5828.96	3.48169	490.106
21	10000	5858.69	327.586	5867.84	3.20033	491.386
22	7943.3	5898.62	306.206	5906.56	2.97164	492.706
23	6309.6	5931.75	288.369	5938.75	2.78321	494.016
24	5011.9	5966.89	273.117	5973.14	2.62072	495.321
25	3981.1	6000.67	261.965	6006.39	2.49971	496.601
26	3162.3	6031.14	250.922	6036.36	2.38238	497.976
27	2511.9	6058.98	244.451	6063.91	2.31035	499.371
28	1995.3	6091.22	238.609	6095.89	2.24328	500.656
29	1584.9	6121.65	234.125	6126.13	2.19023	501.946
30	1258.9	6151.65	232.229	6156.04	2.16193	503.231
31	1000	6180.4	230.114	6184.68	2.1323	504.506
32	794.33	6210.39	230.51	6214.67	2.12566	505.906
33	630.96	6243.03	231.625	6247.33	2.12478	507.276
34	501.19	6272.76	234.228	6277.13	2.13846	508.606
35	398.11	6305.07	238.414	6309.58	2.1655	509.881
36	316.23	6336.68	243.914	6341.38	2.20436	511.151
37	251.19	6367.89	251.634	6372.86	2.26293	512.596
38	199.53	6400.42	262.182	6405.79	2.34571	513.921
39	158.49	6433.64	275.28	6439.53	2.45005	515.331
40	125.89	6472.08	291.151	6478.62	2.57576	516.821
41	100	6509.31	311.78	6516.78	2.74223	518.211
42	79.433	6543.06	333.148	6551.54	2.91477	519.601
43	63.096	6586.13	361.094	6596.02	3.13818	521.026
44	50.119	6632.98	410.619	6645.68	3.54241	522.396
45	39.811	6677.14	426.03	6690.72	3.65076	531.566
46	31.623	6730.53	468.283	6746.8	3.97999	533.206
47	25.119	6783.98	515.366	6803.53	4.34431	534.886
48	19.953	6848.4	569.226	6872.02	4.75139	536.762
49	15.849	6920.12	627.058	6948.47	5.17765	538.742
50	12.589	6993.55	702.136	7028.71	5.73315	540.852
51	10	7073.27	782.105	7116.38	6.30967	543.067
52	7.9433	7156.5	871.757	7209.4	6.94517	545.332
53	6.3096	7256.85	975.366	7322.11	7.65503	547.727
54	5.0119	7362.01	1093.59	7442.79	8.4492	550.157
55	3.9811	7475.44	1232.33	7576.33	9.36105	552.662
56	3.1623	7599.24	1390.99	7725.5	10.3728	555.187
57	2.5119	7733.07	1604.51	7897.77	11.7218	557.662
58	1.9953	7865.31	1824.26	8074.09	13.0582	560.362
59	1.5849	8048.53	2091.64	8315.88	14.5677	563.142
60	1.2589	8221.24	2389.01	8561.32	16.2034	565.932
61	1	8404.35	2812.17	8862.36	18.5007	570.907
62	0.79433	8625.12	3278.2	9227.1	20.8106	574.017
63	0.63096	8883.69	3854.64	9683.92	23.456	577.602
64	0.50119	9137.83	4526.82	10197.6	26.3535	581.382
65	0.39811	9468.36	5380.81	10890.5	29.6093	585.647
66	0.31623	9801.24	6406.77	11709.4	33.1714	590.353
67	0.25119	10309.7	7674.69	12852.6	36.6645	595.808
68	0.19953	10795.2	9220.5	14197	40.5016	602.453
69	0.15849	11475.3	11027.8	15915.2	43.8607	609.693
70	0.12589	12268.8	13087	17938.6	46.8481	618.183
71	0.1	13075.9	15830.1	20532.2	50.4428	628.338

File: Z_p43_3.txt
Index	Frequency (Hz)	Z' (Ω)	-Z'' (Ω)	Z (Ω)	-Phase (°)	Time (s)
1	1000000	2750.53	1997.53	3399.34	35.9886	775.791
2	794330	3039.66	1853.94	3560.43	31.3797	777.887
3	630960	3380.13	1765.98	3813.65	27.5852	780.018
4	501190	3723.81	1681.65	4085.91	24.3037	782.189
5	398110	4051.71	1567.99	4344.53	21.1562	789.068
6	316230	4334.83	1464.99	4575.69	18.6731	791.274
7	251190	4501.25	1294.19	4683.61	16.0409	798.043
8	199530	4725.09	1193.18	4873.41	14.1721	800.069
9	158490	4913.16	1088.18	5032.23	12.4884	802.12
10	125890	5070.35	983.583	5164.87	10.9783	804.176
11	100000	5202.27	884.575	5276.94	9.65008	806.232
12	79433	5316.8	794.106	5375.78	8.49478	808.173
13	63096	5414.96	711.162	5461.46	7.48199	810.159
14	50119	5496.4	636.481	5533.13	6.60541	812.305
15	39811	5569.24	569.261	5598.26	5.83623	814.486
16	31623	5629.48	509.754	5652.51	5.17407	816.503
17	25119	5684.71	462.197	5703.46	4.64823	818.554
18	19953	5737.44	421.083	5752.87	4.19754	820.675
19	15849	5784.07	386.1	5796.94	3.81896	822.646
20	12589	5826.95	353.604	5837.66	3.47269	824.772
21	10000	5866.9	327.719	5876.05	3.19716	826.738
22	7943.3	5904.39	307.007	5912.37	2.97649	828.939
23	6309.6	5940.32	287.904	5947.3	2.77473	831.015
24	5011.9	5970.54	273.504	5976.8	2.62283	832.941
25	3981.1	6008.37	261.913	6014.07	2.49602	835.027
26	3162.3	6041.1	251.893	6046.35	2.38765	837.003
27	2511.9	6071.21	245.077	6076.15	2.31161	838.989
28	1995.3	6099.13	238.365	6103.79	2.23808	840.955
29	1584.9	6131.71	234.954	6136.21	2.19438	842.921
30	1258.9	6160.36	231.912	6164.73	2.15593	844.847
31	1000	6188.98	231.031	6193.29	2.13782	846.858
32	794.33	6222.92	231.084	6227.21	2.12666	848.844
33	630.96	6253.68	232.28	6257.99	2.12716	850.8
34	501.19	6284.12	234.872	6288.5	2.14047	852.816
35	398.11	6311.75	239.123	6316.28	2.16963	854.737
36	316.23	6343.06	244.999	6347.79	2.21193	856.718
37	251.19	6377.15	253.016	6382.17	2.27204	858.794
38	199.53	6410.74	263.987	6416.18	2.35804	860.885
39	158.49	6444.04	277.305	6450	2.46407	862.846
40	125.89	6478.27	293.478	6484.91	2.59384	864.967
41	100	6513.91	311.053	6521.34	2.73392	866.963
42	79.433	6548.92	334.453	6557.45	2.92355	869.174
43	63.096	6594.68	361.196	6604.57	3.135	871.351
44	50.119	6627.7	401.512	6639.85	3.46679	873.467
45	39.811	6686.51	426.792	6700.12	3.65217	883.458
46	31.623	6735.59	467.036	6751.77	3.96645	885.889
47	25.119	6793.96	514.499	6813.42	4.33068	888.22
48	19.953	6857.41	572.306	6881.25	4.77073	890.771
49	15.849	6926.17	632.974	6955.03	5.22169	893.372
50	12.589	7003.59	703.807	7038.86	5.73853	896.153
51	10	7085.54	781.333	7128.48	6.29267	899.219
52	7.9433	7169.15	873.727	7222.19	6.94855	902.2
53	6.3096	7266.27	979.882	7332.05	7.6802	905.161
54	5.0119	7370.28	1094.36	7451.09	8.44576	908.207
55	3.9811	7482.6	1238.03	7584.33	9.39471	911.313
56	3.1623	7606.41	1393.64	7733.03	10.3825	914.674
57	2.5119	7741.55	1597.02	7904.56	11.6561	917.86
58	1.9953	7885.71	1845.51	8098.78	13.172	921.271
59	1.5849	8048.91	2124.08	8324.47	14.7832	924.748
60	1.2589	8199.97	2421.31	8549.98	16.451	928.264
61	1	8418.45	2818.06	8877.6	18.5079	934.691
62	0.79433	8660.88	3288.86	9264.31	20.7936	938.607
63	0.63096	8878.66	3861.28	9681.95	23.504	942.778
64	0.50119	9156.4	4537.26	10218.9	26.3597	947.184
65	0.39811	9470.16	5385.03	10894.1	29.6239	952.22
66	0.31623	9865.2	6460.4	11792.3	33.2195	957.751
67	0.25119	10325.2	7702.93	12882	36.724	964.092
68	0.19953	10773.5	9195.85	14164.5	40.4828	970.898
69	0.15849	11416.8	10953.9	15821.8	43.8146	978.84
70	0.12589	12169.7	13156.2	17921.7	47.2306	988.106
71	0.1	13177.6	15887	20640.9	50.3256	998.912

File: Z_p44_1.txt
Index	Frequency (Hz)	Z' (Ω)	-Z'' (Ω)	Z (Ω)	-Phase (°)	Time (s)
1	1000000	2782.08	2015.07	3435.18	35.9159	27.6373
2	794330	3090.6	1878.97	3616.95	31.2981	29.0223
3	630960	3449.71	1775.67	3879.89	27.2362	30.4473
4	501190	3788.85	1673.52	4141.98	23.8309	31.9774
5	398110	4119.33	1553.6	4402.57	20.664	36.9025
6	316230	4386.29	1437.82	4615.93	18.149	38.1825
7	251190	4550.67	1248.54	4718.84	15.3424	42.1976
8	199530	4766.56	1140.19	4901.03	13.4527	43.5476
9	158490	4941.49	1029.14	5047.52	11.7645	44.9226
10	125890	5086	919.61	5168.47	10.249	46.2276
11	100000	5205.72	816.735	5269.4	8.91656	47.7477
12	79433	5306.1	723.072	5355.14	7.76	49.1577
13	63096	5387.76	639.816	5425.62	6.77236	50.5127
14	50119	5461.22	566.309	5490.5	5.92021	51.8077
15	39811	5518.92	502.777	5541.78	5.20531	53.2128
16	31623	5569.6	447.243	5587.53	4.59104	54.5228
17	25119	5618.36	399.637	5632.55	4.06863	55.9378
18	19953	5657.77	360.997	5669.27	3.65084	57.2178
19	15849	5697.14	328.122	5706.58	3.29626	58.5029
20	12589	5731.5	301.582	5739.43	3.01203	59.8279
21	10000	5762.07	279.686	5768.85	2.7789	61.2129
22	7943.3	5794.89	260.701	5800.76	2.57589	62.6329
23	6309.6	5825.43	244.248	5830.55	2.40088	64.053
24	5011.9	5853.37	234.067	5858.05	2.28995	65.453
25	3981.1	5878.95	222.678	5883.17	2.16917	66.713
26	3162.3	5907.38	214.759	5911.28	2.08204	67.983
27	2511.9	5936.6	208.673	5940.26	2.01313	69.3081
28	1995.3	5960.6	203.866	5964.08	1.95888	70.5531
29	1584.9	5987.21	199.868	5990.55	1.91197	71.8181
30	1258.9	6013.54	197.41	6016.78	1.88021	73.1281
31	1000	6040.75	194.963	6043.89	1.84856	74.4482
32	794.33	6067.01	194.268	6070.12	1.83401	75.8382
33	630.96	6090.38	193.415	6093.45	1.81896	77.1332
34	501.19	6119.66	193.509	6122.71	1.81114	78.4282
35	398.11	6144.53	194.601	6147.61	1.81399	79.7083
36	316.23	6171.43	197.293	6174.59	1.83105	81.1233
37	251.19	6199.02	200.813	6202.28	1.85541	82.4233
38	199.53	6226.88	206.817	6230.31	1.9023	83.7033
39	158.49	6253.16	213.411	6256.8	1.95466	85.0784
40	125.89	6281.25	223.373	6285.22	2.03669	86.5284
41	100	6313.56	233.138	6317.86	2.11477	87.9484
42	79.433	6338.77	247.514	6343.6	2.23613	89.3334
43	63.096	6371.88	263.31	6377.31	2.36633	90.7485
44	50.119	6394.19	287.483	6400.64	2.57429	92.1685
45	39.811	6435.24	301.957	6442.32	2.68648	101.384
46	31.623	6475.41	325.329	6483.58	2.87616	102.999
47	25.119	6519.44	354.664	6529.08	3.11388	104.749
48	19.953	6563.03	389.891	6574.6	3.39978	106.724
49	15.849	6608.87	424.15	6622.47	3.67215	108.684
50	12.589	6666.61	466.545	6682.92	4.00316	110.834
51	10	6725.95	514.714	6745.62	4.37612	113.119
52	7.9433	6787.93	565.924	6811.48	4.76585	115.419
53	6.3096	6853.32	628.237	6882.06	5.2376	117.714
54	5.0119	6933.03	695.186	6967.79	5.726	120.139
55	3.9811	7014.28	771.697	7056.6	6.27832	122.584
56	3.1623	7099.35	854.254	7150.56	6.86133	125.144
57	2.5119	7202.32	960.586	7266.1	7.5968	127.694
58	1.9953	7324.42	1097.95	7406.26	8.5253	130.339
59	1.5849	7436.19	1207.94	7533.66	9.22655	133.099
60	1.2589	7537.51	1394.49	7665.42	10.4816	136.034
61	1	7694.45	1561.44	7851.29	11.4713	141.204
62	0.79433	7878.4	1775.95	8076.09	12.7033	144.374
63	0.63096	8040.33	2015.79	8289.17	14.0745	148.01
64	0.50119	8255.93	2325.7	8577.25	15.7326	151.795
65	0.39811	8463.84	2667.71	8874.3	17.4943	156.125
66	0.31623	8751.39	3088.69	9280.46	19.4398	160.87
67	0.25119	9021.95	3530.69	9688.21	21.3726	166.355
68	0.19953	9363.02	4065.11	10207.4	23.4689	172.52
69	0.15849	9736.01	4727.19	10823	25.8983	179.835
70	0.12589	10241.3	5525.64	11636.9	28.3489	188.335
71	0.1	10716	6291.34	12426.3	30.4172	198.545

File: Z_p44_2.txt
Index	Frequency (Hz)	Z' (Ω)	-Z'' (Ω)	Z (Ω)	-Phase (°)	Time (s)
1	1000000	2784.99	2035.62	3449.63	36.164	233.41
2	794330	3090.54	1877.75	3616.27	31.2819	234.805
3	630960	3448.77	1771.17	3876.99	27.1835	236.195
4	501190	3790.31	1679.34	4145.68	23.8963	237.71
5	398110	4125.37	1554.37	4408.48	20.6456	242.745
6	316230	4399.36	1441.9	4629.63	18.1467	244.055
7	251190	4556.43	1252.73	4725.5	15.3728	248.17
8	199530	4766.87	1144.3	4902.29	13.4985	249.465
9	158490	4945.53	1031.23	5051.9	11.7784	250.98
10	125890	5090.74	921.822	5173.53	10.2638	252.345
11	100000	5208.63	817.317	5272.37	8.9179	253.73
12	79433	5313.23	728.43	5362.93	7.80643	255.035
13	63096	5395.14	639.726	5432.94	6.76224	256.45
14	50119	5465.01	567.069	5494.35	5.92401	257.905
15	39811	5528.44	503.106	5551.28	5.19978	259.305
16	31623	5576.66	446.903	5594.53	4.58179	260.63
17	25119	5623.15	400.78	5637.41	4.07676	261.905
18	19953	5664.35	361.785	5675.89	3.65454	263.21
19	15849	5702.63	328.363	5712.08	3.29551	264.6
20	12589	5737.76	300.571	5745.63	2.99868	265.881
21	10000	5771.08	278.562	5777.8	2.76344	267.176
22	7943.3	5805.94	261.3	5811.81	2.5769	268.656
23	6309.6	5831.87	244.984	5837.02	2.40545	269.956
24	5011.9	5860.81	233.017	5865.44	2.27679	271.296
25	3981.1	5887.85	223.05	5892.07	2.16951	272.596
26	3162.3	5912.76	215.015	5916.67	2.08262	273.861
27	2511.9	5940.15	208.273	5943.8	2.00807	275.171
28	1995.3	5969.77	204.833	5973.28	1.96515	276.516
29	1584.9	5990.96	200.433	5994.32	1.91617	277.751
30	1258.9	6020.19	196.795	6023.4	1.87229	278.981
31	1000	6045.69	195.276	6048.85	1.85001	280.351
32	794.33	6073.54	193.863	6076.63	1.82822	281.871
33	630.96	6099.66	193.37	6102.73	1.81577	283.141
34	501.19	6124.99	193.28	6128.04	1.80742	284.446
35	398.11	6152.74	193.944	6155.79	1.80546	285.831
36	316.23	6178.93	196.184	6182.04	1.81856	287.181
37	251.19	6204.46	200.106	6207.68	1.84726	288.501
38	199.53	6233.54	206.436	6236.96	1.89677	289.796
39	158.49	6257.64	212.655	6261.25	1.94635	291.171
40	125.89	6290.78	221.854	6294.69	2.01978	292.636
41	100	6315.89	233.188	6320.19	2.11444	293.981
42	79.433	6345.39	245.514	6350.14	2.21576	295.406
43	63.096	6376.6	261.939	6381.97	2.35228	296.796
44	50.119	6430.26	268.384	6435.86	2.39	298.161
45	39.811	6443.62	298.844	6450.54	2.65538	307.281
46	31.623	6483.39	321.511	6491.36	2.83897	308.916
47	25.119	6526.66	351.877	6536.14	3.08605	310.666
48	19.953	6567.99	385.422	6579.28	3.35838	312.651
49	15.849	6621.45	421.139	6634.83	3.63924	314.556
50	12.589	6671.26	462.75	6687.29	3.96795	316.526
51	10	6730.94	508.241	6750.1	4.31811	318.911
52	7.9433	6786.21	559.757	6809.25	4.71534	321.182
53	6.3096	6857.52	622.722	6885.74	5.18872	323.662
54	5.0119	6936.98	685.799	6970.8	5.64598	326.037
55	3.9811	7003.95	760.767	7045.14	6.19915	328.402
56	3.1623	7096.86	852.01	7147.82	6.84586	330.947
57	2.5119	7189.82	958.171	7253.39	7.59095	333.507
58	1.9953	7298.06	1058.16	7374.37	8.24992	336.172
59	1.5849	7402.88	1183.66	7496.91	9.08424	338.967
60	1.2589	7558.28	1351.84	7678.22	10.1405	341.932
61	1	7683.78	1547.13	7837.99	11.3843	346.902
62	0.79433	7853.53	1759.18	8048.15	12.6257	350.037
63	0.63096	8044.17	2007.22	8290.81	14.0106	353.672
64	0.50119	8227.25	2283.82	8538.36	15.5142	357.442
65	0.39811	8464.63	2623.69	8861.93	17.2213	361.652
66	0.31623	8703.25	3032.7	9216.5	19.2112	366.432
67	0.25119	9046.91	3500.51	9700.52	21.1529	371.932
68	0.19953	9395.96	4069.35	10239.3	23.4172	378.238
69	0.15849	9788.11	4666.67	10843.7	25.4904	385.493
70	0.12589	10146.9	5382.19	11486	27.9427	394.033
71	0.1	10714.3	6361.82	12460.7	30.7005	404.253

File: Z_p44_3.txt
Index	Frequency (Hz)	Z' (Ω)	-Z'' (Ω)	Z (Ω)	-Phase (°)	Time (s)
1	1000000	2767.08	2034.68	3434.62	36.3278	454.83
2	794330	3096.79	1880.89	3623.24	31.2732	456.971
3	630960	3453.33	1776.86	3883.64	27.2274	459.167
4	501190	3796.82	1678.68	4151.37	23.8516	461.373
5	398110	4129.47	1564.17	4415.78	20.7458	470.038
6	316230	4401.27	1422.33	4625.39	17.909	472.189
7	251190	4561.01	1257.7	4731.24	15.4163	479.488
8	199530	4776.18	1147.63	4912.12	13.511	481.664
9	158490	4954.25	1032.73	5060.74	11.7749	483.79
10	125890	5095.6	924.585	5178.8	10.2843	485.791
11	100000	5217.18	820.786	5281.35	8.9407	488.037
12	79433	5317.26	726.388	5366.64	7.779	490.198
13	63096	5400.81	643.422	5439	6.79388	492.435
14	50119	5471.09	569.137	5500.61	5.9389	494.691
15	39811	5535.24	505.583	5558.28	5.21885	496.802
16	31623	5584.38	449.391	5602.44	4.60084	498.853
17	25119	5628.67	402.052	5643.01	4.08566	500.974
18	19953	5673.12	362.372	5684.68	3.65482	503.065
19	15849	5709.9	329.117	5719.38	3.29886	505.201
20	12589	5745.28	302.104	5753.22	3.01001	507.242
21	10000	5779.89	278.947	5786.62	2.76305	509.303
22	7943.3	5813	261.653	5818.88	2.57724	511.434
23	6309.6	5840.81	245.265	5845.95	2.40453	513.54
24	5011.9	5869.3	233.672	5873.95	2.27989	515.731
25	3981.1	5895.34	223.812	5899.59	2.17415	517.812
26	3162.3	5920.06	215.711	5923.99	2.08678	519.898
27	2511.9	5948.53	209.709	5952.23	2.01906	522.149
28	1995.3	5977.82	204.786	5981.33	1.96205	524.155
29	1584.9	6002.72	201	6006.09	1.91782	526.026
30	1258.9	6029.7	197.829	6032.94	1.87914	528.027
31	1000	6057.02	195.276	6060.17	1.84656	530.138
32	794.33	6078.86	194.197	6081.96	1.82977	532.339
33	630.96	6106.51	193.004	6109.56	1.81031	534.405
34	501.19	6134.23	193.864	6137.29	1.81015	536.436
35	398.11	6159.52	194.139	6162.58	1.80528	538.512
36	316.23	6186.45	196.499	6189.57	1.81927	540.628
37	251.19	6215.24	201.324	6218.5	1.85528	542.804
38	199.53	6240.47	205.581	6243.86	1.88683	544.805
39	158.49	6267.24	212.579	6270.84	1.94268	546.962
40	125.89	6295.84	222.52	6299.78	2.02422	549.153
41	100	6325.47	232.092	6329.73	2.10134	551.189
42	79.433	6352.32	244.909	6357.03	2.2079	553.275
43	63.096	6384.59	262.691	6390	2.35608	555.456
44	50.119	6399.08	279.049	6405.16	2.49696	557.702
45	39.811	6453.21	300.679	6460.21	2.66769	567.698
46	31.623	6490.3	324.82	6498.42	2.86509	570.124
47	25.119	6533.91	351.41	6543.35	3.07855	572.69
48	19.953	6573.4	382.872	6584.54	3.33346	575.256
49	15.849	6627.27	418.788	6640.48	3.61581	577.967
50	12.589	6672.24	461.158	6688.16	3.95376	580.773
51	10	6732.5	508.611	6751.68	4.32024	583.859
52	7.9433	6794.04	558.451	6816.95	4.69899	586.93
53	6.3096	6865.66	619.343	6893.53	5.15463	590.086
54	5.0119	6935.34	682.073	6968.8	5.61683	593.332
55	3.9811	7018.92	760.426	7060	6.18327	596.528
56	3.1623	7087.87	840.909	7137.58	6.76598	599.785
57	2.5119	7183.92	958.982	7247.64	7.60347	603.141
58	1.9953	7305.47	1055.57	7381.34	8.22182	606.647
59	1.5849	7404.29	1193.7	7499.9	9.15828	610.003
60	1.2589	7562.87	1356.98	7683.65	10.1721	613.644
61	1	7692.2	1543.76	7845.58	11.348	620.016
62	0.79433	7863.43	1751.41	8056.11	12.5565	623.897
63	0.63096	8036.91	2007.25	8283.78	14.023	628.058
64	0.50119	8250.16	2295.13	8563.46	15.5461	632.729
65	0.39811	8472.63	2620.8	8868.71	17.1882	637.565
66	0.31623	8740.5	3050.21	9257.44	19.2377	643.116
67	0.25119	9056.37	3505.64	9711.2	21.1609	649.302
68	0.19953	9343.61	4057.42	10186.5	23.4727	656.144
69	0.15849	9717.23	4663.31	10778.3	25.6364	664.08
70	0.12589	10130.1	5415.55	11486.9	28.1288	673.421
71	0.1	10705.9	6357.37	12451.2	30.7027	684.342

File: Z_p45_1.txt
Index	Frequency (Hz)	Z' (Ω)	-Z'' (Ω)	Z (Ω)	-Phase (°)	Time (s)
1	1000000	1851.36	1120.68	2164.13	31.1876	60.9789
2	794330	1998.75	1044.97	2255.43	27.601	62.3989
3	630960	2179.03	988.564	2392.78	24.4025	63.7889
4	501190	2356.72	932.983	2534.68	21.5977	65.339
5	398110	2517.78	842.633	2655.04	18.504	69.4641
6	316230	2661.09	776.689	2772.12	16.2709	70.7291
7	251190	2738.98	665.38	2818.64	13.6544	74.9942
8	199530	2853.31	602.685	2916.26	11.9269	76.3192
9	158490	2945.04	539.219	2993.99	10.3756	77.7592
10	125890	3021.67	477.796	3059.21	8.98541	79.0542
11	100000	3081.93	420.155	3110.44	7.76318	80.4393
12	79433	3132.04	368.634	3153.66	6.7127	81.7443
13	63096	3171.24	322.761	3187.62	5.81142	83.0893
14	50119	3206.16	282.811	3218.61	5.04094	84.5443
15	39811	3233.88	248.673	3243.43	4.39717	85.8694
16	31623	3257.38	218.617	3264.71	3.83961	87.3694
17	25119	3279.09	195.688	3284.92	3.41523	88.7644
18	19953	3297.12	176.546	3301.84	3.06501	90.2994
19	15849	3314.21	160.047	3318.07	2.76473	91.9595
20	12589	3330.36	147.349	3333.62	2.53335	93.2695
21	10000	3346.53	136.885	3349.33	2.3423	94.7395
22	7943.3	3360.4	129.058	3362.87	2.1994	96.0945
23	6309.6	3373.46	122.603	3375.68	2.08141	97.5296
24	5011.9	3388.94	118.015	3390.99	1.99444	98.8646
25	3981.1	3401.45	114.817	3403.39	1.9333	100.205
26	3162.3	3415.78	112.407	3417.63	1.88482	101.5
27	2511.9	3428.23	111.722	3430.05	1.86655	102.87
28	1995.3	3443.78	111.335	3445.58	1.85169	104.235
29	1584.9	3458.34	111.562	3460.14	1.84766	105.505
30	1258.9	3472.64	112.911	3474.48	1.86228	106.88
31	1000	3487.04	114.607	3488.92	1.88243	108.245
32	794.33	3502.73	117.168	3504.69	1.91586	109.685
33	630.96	3519.35	120.185	3521.4	1.95587	110.955
34	501.19	3534.04	123.952	3536.21	2.00875	112.62
35	398.11	3550.92	128.469	3553.24	2.07201	113.985
36	316.23	3569.16	134.316	3571.69	2.15515	115.545
37	251.19	3587.37	140.964	3590.13	2.25026	116.99
38	199.53	3604.81	148.73	3607.88	2.36262	118.295
39	158.49	3625.46	158.374	3628.92	2.50131	119.61
40	125.89	3645.61	168.775	3649.51	2.65064	121.035
41	100	3665.57	181.769	3670.07	2.83887	122.465
42	79.433	3691.36	195.566	3696.54	3.03267	123.96
43	63.096	3714.9	211.601	3720.92	3.26005	125.385
44	50.119	3739.14	228.666	3746.13	3.49954	126.8
45	39.811	3771.8	249.902	3780.07	3.79062	136.34
46	31.623	3804.26	272.866	3814.04	4.10259	138.035
47	25.119	3840.4	298.458	3851.98	4.44383	139.65
48	19.953	3877.69	327.477	3891.49	4.82726	141.54
49	15.849	3922.39	358.969	3938.78	5.22903	143.66
50	12.589	3966.84	393.101	3986.27	5.65935	145.735
51	10	4018.22	431.478	4041.32	6.12896	148.096
52	7.9433	4072.12	475.188	4099.75	6.65592	150.446
53	6.3096	4131.37	521.375	4164.14	7.19265	152.806
54	5.0119	4193.79	574.77	4233	7.80392	155.161
55	3.9811	4262.78	635.607	4309.9	8.48069	157.666
56	3.1623	4332.38	705.681	4389.47	9.2514	160.286
57	2.5119	4407.78	780.199	4476.3	10.0377	162.941
58	1.9953	4490.37	870.122	4573.89	10.9666	165.616
59	1.5849	4585.55	991.862	4691.59	12.2052	168.371
60	1.2589	4684.41	1112.97	4814.81	13.3651	171.201
61	1	4792.04	1267.48	4956.83	14.8153	176.266
62	0.79433	4910.66	1449.06	5119.99	16.4405	179.446
63	0.63096	5030.77	1647.9	5293.79	18.1369	183.006
64	0.50119	5150.82	1917.43	5496.13	20.4181	186.836
65	0.39811	5284.42	2231.64	5736.31	22.8947	190.986
66	0.31623	5454.7	2636.62	6058.51	25.7975	195.776
67	0.25119	5623.82	3069.62	6407.02	28.6268	201.226
68	0.19953	5840.56	3623.88	6873.48	31.8183	207.492
69	0.15849	6058.22	4311.7	7435.92	35.4399	214.882
70	0.12589	6297.15	5222.28	8180.85	39.6692	223.382
71	0.1	6687.48	6189.33	9112.09	42.7846	233.637

File: Z_p45_2.txt
Index	Frequency (Hz)	Z' (Ω)	-Z'' (Ω)	Z (Ω)	-Phase (°)	Time (s)
1	1000000	1849.11	1110.05	2156.72	30.9771	394.004
2	794330	2004.04	1047.26	2261.18	27.5903	396.904
3	630960	2183.6	990.164	2397.61	24.3922	400.584
4	501190	2359.04	931.289	2536.21	21.5429	404.429
5	398110	2520.18	845.318	2658.17	18.5425	414.729
6	316230	2667.36	771.629	2776.73	16.1344	416.394
7	251190	2743.66	666.825	2823.53	13.6604	420.264
8	199530	2857.53	604.652	2920.8	11.9475	421.889
9	158490	2950.48	540.764	2999.62	10.3859	423.429
10	125890	3025.06	478.382	3062.65	8.98633	425.184
11	100000	3085.17	420.892	3113.75	7.76858	426.834
12	79433	3135.19	369.293	3156.86	6.71791	435.07
13	63096	3176.67	323.786	3193.13	5.81983	439.615
14	50119	3210.14	283.275	3222.62	5.04292	441.315
15	39811	3237.61	249.173	3247.19	4.40092	443.05
16	31623	3262.12	219.434	3269.49	3.84834	444.86
17	25119	3282.43	196.382	3288.3	3.42383	447.67
18	19953	3302.75	176.89	3307.49	3.06573	449.48
19	15849	3319.74	160.854	3323.63	2.77402	451.555
20	12589	3336.76	148.076	3340.05	2.54095	453.12
21	10000	3352.45	137.873	3355.29	2.35502	455.715
22	7943.3	3366.17	129.359	3368.65	2.20075	462.7
23	6309.6	3380.92	122.944	3383.15	2.08259	465.56
24	5011.9	3395.73	118.267	3397.79	1.9947	467.385
25	3981.1	3408.51	114.836	3410.44	1.92962	468.78
26	3162.3	3420.86	112.977	3422.73	1.89155	470.5
27	2511.9	3437.35	111.882	3439.17	1.86426	471.89
28	1995.3	3450.41	111.431	3452.21	1.84973	473.3
29	1584.9	3463.86	111.766	3465.66	1.84809	474.72
30	1258.9	3477.43	113.534	3479.28	1.86997	476.17
31	1000	3493.26	114.821	3495.14	1.8826	477.53
32	794.33	3507.68	116.929	3509.63	1.90925	478.88
33	630.96	3524.41	120.403	3526.47	1.9566	481.075
34	501.19	3540.99	123.814	3543.16	2.00257	486.601
35	398.11	3556.41	128.696	3558.74	2.07246	488.956
36	316.23	3574.45	134.319	3576.97	2.15202	490.311
37	251.19	3593.96	141.251	3596.74	2.25069	492.531
38	199.53	3611.88	148.595	3614.94	2.35586	495.256
39	158.49	3632.34	158.688	3635.81	2.50152	501.016
40	125.89	3652.7	169.626	3656.63	2.65883	502.871
41	100	3672.4	181.429	3676.88	2.82831	504.431
42	79.433	3696.91	195.548	3702.07	3.02783	507.181
43	63.096	3721.36	211.265	3727.35	3.24925	509.336
44	50.119	3747.36	230.873	3754.47	3.52551	512.051
45	39.811	3779.4	249.838	3787.65	3.78204	521.721
46	31.623	3812.1	272.398	3821.82	4.08719	523.486
47	25.119	3846.35	298.437	3857.91	4.43667	525.571
48	19.953	3886.45	328.44	3900.31	4.83052	528.291
49	15.849	3928.86	360.084	3945.33	5.23658	530.776
50	12.589	3975.83	393.485	3995.25	5.65212	533.111
51	10	4022.39	431.858	4045.5	6.128	536.572
52	7.9433	4079.56	472.784	4106.87	6.61056	540.497
53	6.3096	4137.11	520.979	4169.79	7.17738	543.372
54	5.0119	4203.83	575.235	4243	7.79173	546.417
55	3.9811	4267.31	635.358	4314.35	8.46854	549.197
56	3.1623	4340.38	707.312	4397.63	9.25561	552.487
57	2.5119	4414.75	781.335	4483.36	10.0364	555.672
58	1.9953	4495.86	875.072	4580.23	11.0143	560.097
59	1.5849	4594.69	975.253	4697.05	11.9836	565.457
60	1.2589	4698	1107.82	4826.85	13.2683	569.787
61	1	4794.98	1264.46	4958.9	14.7729	579.832
62	0.79433	4913.98	1441.19	5120.96	16.3456	583.292
63	0.63096	5029.68	1648.15	5292.83	18.1432	587.122
64	0.50119	5177.36	1910.73	5518.69	20.2568	592.148
65	0.39811	5314.59	2223.3	5760.9	22.7014	598.668
66	0.31623	5463.79	2627.91	6062.91	25.686	603.913
67	0.25119	5636.54	3065.8	6416.36	28.5425	609.513
68	0.19953	5830.6	3682.78	6896.29	32.2777	616.788
69	0.15849	6066.43	4379.15	7481.88	35.8243	624.258
70	0.12589	6383.26	5198.74	8232.43	39.1605	632.998
71	0.1	6587.71	6169.46	9025.53	43.1222	643.243