Folder: Streamlit_cement_impedance/data/20200805

Note: README.md
# Software KDssZ version 1.0

This software tool works to analyze impedance measurements through a lumped circuital model.

## The repository contains:

- The Python module called [KDssZ.py](https://github.com/dantrica/Streamlit_cement_impedance/blob/c79735cefb679f8cb21de758db89e5011d7d15d4/KDssZ.py) contains the algorithms to optimize the electrical impedance measurements.
- The Python module called [appZ.py](https://github.com/dantrica/Streamlit_cement_impedance/blob/b421c1652a15b18d4e0220819822e362abc5bec6/appZ.py) contains the code to deploy the application on the Streamlit platform.
- All [data](https://github.com/dantrica/Streamlit_cement_impedance/tree/c79735cefb679f8cb21de758db89e5011d7d15d4/data) acquired during the experimental campaign is located in this repository Streamlit_cement_impedance/data/.
- The [Figures](https://github.com/dantrica/Streamlit_cement_impedance/tree/c79735cefb679f8cb21de758db89e5011d7d15d4/figures) folder contains an image describing the lumped circuit model.

## The left sidebar functionalities:

The user can upload the impedance measurements in format .txt. Moreover, this object contains the elements that will be presented in the left sidebar, such as i) the uploading file option, ii) the lumped circuit model, iii) Add and Remove buttons to move data in the Optimization zone, iv) Run and Reset buttons to start and clear the optimization.

## Project Description: 

$\texttt{KDssZ}$ has been developed to optimize experimental electrical impedance data to a lumped circuit model. This approach allows users to correlate the interactions among the components in the composite-electrodes, cement, nanoparticles, and pores with the measured impedance, which is analyzed across three frequency ranges: high, medium, and low. Although the software has been validated with impedance measurements from gold nanoparticles/cement-based composites, it can also be used to study the electrical properties of other cement-based composites. KDssZ is deployed on the Streamlit platform, and in line with the principles of open science, it allows researchers working on similar studies to use this tool to explore new research questions related to cement-based composites.

## Usage instructions:

The main functionalities of the software KDssZ are displayed in Figure~\ref{}, and enumerated according to the following list:

1. Push button \texttt{Browse Files} to upload \texttt{.txt} files with electrical impedance spectroscopy data.
2. Help menu explaining the format files to be received; help hints boxes to report whether a file was added previously or it is already in the optimization zone; and help tips on buttons.
3. Choosing the file data since Select tag.
4. Buttons $\texttt{Add data}$ and $\texttt{Remove}$, to add or remove data to the optimization zone.
5. Buttons $\texttt{Run}$ and $\texttt{Reset}$, to start the optimization, create the plots and return the DataFrame with the parameters.
6. Figures: wide mode and saving options.
7. T

File: Z_p18_1.txt
Index	Frequency (Hz)	Z' (Ω)	-Z'' (Ω)	Z (Ω)	-Phase (°)	Time (s)
1	1000000	3182.97	7502.36	8149.65	67.0103	130.586
2	794330	4951.32	8099.58	9493.09	58.5623	132.046
3	630960	6946.75	8904.09	11293.4	52.0395	133.396
4	501190	9064.32	9865.12	13397.1	47.4224	134.871
5	398110	11505	11574.3	16319.6	45.1719	138.031
6	316230	13813.3	12118.3	18375.6	41.2602	139.391
7	251190	15909.8	12339.6	20134.2	37.797	142.581
8	199530	18319.7	12584.2	22225.5	34.486	144.046
9	158490	20705.9	12534	24204	31.1879	145.572
10	125890	22985.8	12248.6	26045.7	28.0522	146.977
11	100000	25148.2	11762	27762.8	25.0658	148.507
12	79433	27104.3	11126.3	29299.1	22.318	149.882
13	63096	28862.2	10380.8	30672.2	19.782	151.297
14	50119	30463	9583.77	31935	17.4638	152.797
15	39811	31825.3	8746.31	33005.3	15.3668	154.192
16	31623	33005.9	7934.27	33946.2	13.5168	155.562
17	25119	34030.9	7186.19	34781.4	11.9238	157.027
18	19953	34903.7	6508.02	35505.3	10.5619	158.372
19	15849	35646.4	5908.22	36132.7	9.41095	159.667
20	12589	36348.1	5372.01	36742.9	8.40709	160.982
21	10000	36900	4886.09	37222.1	7.5429	162.262
22	7943.3	37465.2	4516.11	37736.4	6.87336	163.652
23	6309.6	37995.8	4211.78	38228.5	6.32533	164.897
24	5011.9	38480.1	3961.27	38683.4	5.87752	166.182
25	3981.1	38947.2	3759.28	39128.2	5.51325	167.502
26	3162.3	39373.9	3598.45	39538	5.22186	168.797
27	2511.9	39823.8	3481.46	39975.7	4.99618	170.257
28	1995.3	40252.4	3389.74	40394.9	4.81364	171.627
29	1584.9	40700.3	3334.72	40836.7	4.68398	172.887
30	1258.9	41127.6	3293.8	41259.2	4.57889	174.277
31	1000	41572.6	3275.97	41701.5	4.50567	175.562
32	794.33	42033.4	3270.09	42160.4	4.44851	176.967
33	630.96	42467.4	3275.23	42593.5	4.41012	178.282
34	501.19	42928.3	3290.64	43054.2	4.3834	179.612
35	398.11	43403.1	3308.52	43529.1	4.3591	180.862
36	316.23	43891.7	3329.04	44017.7	4.33739	182.172
37	251.19	44387.3	3352.56	44513.8	4.31933	183.562
38	199.53	44868.6	3372.37	44995.2	4.29833	184.782
39	158.49	45364.6	3387.66	45490.9	4.27071	186.122
40	125.89	45870	3396.86	45995.6	4.23526	187.547
41	100	46365.2	3394.57	46489.3	4.18737	188.947
42	79.433	46868	3399.37	46991.1	4.14844	190.332
43	63.096	47368.1	3403.98	47490.3	4.11033	191.777
44	50.119	47895.2	3375.88	48014	4.03181	193.202
45	39.811	48381.7	3357.53	48498.1	3.96977	202.398
46	31.623	48900.8	3331.21	49014.1	3.89707	204.003
47	25.119	49394.4	3303	49504.7	3.82567	205.768
48	19.953	49866.5	3286.47	49974.6	3.77065	207.663
49	15.849	50352.9	3248.73	50457.5	3.69157	209.598
50	12.589	50830.9	3217.53	50932.6	3.62192	211.623
51	10	51288.6	3167.13	51386.3	3.53359	214.023
52	7.9433	51756.8	3128.04	51851.2	3.45859	216.368
53	6.3096	52190.5	3077.21	52281.1	3.37431	218.748
54	5.0119	52646.9	3042.08	52734.7	3.30703	221.083
55	3.9811	53063	3000.78	53147.8	3.2367	223.528
56	3.1623	53466.4	2970.79	53548.9	3.18029	225.983
57	2.5119	53853.1	2972.23	53935	3.15903	228.588
58	1.9953	54196.2	2977.06	54277.9	3.14417	231.338
59	1.5849	54573.2	3023.58	54656.9	3.17118	234.063
60	1.2589	54878.2	3114.84	54966.5	3.24858	236.873
61	1	55212.5	3258.34	55308.6	3.37736	240.138
62	0.79433	55532.4	3446.64	55639.2	3.55154	243.328
63	0.63096	55867.1	3696	55989.2	3.785	246.808
64	0.50119	56221.7	4056.87	56367.9	4.12722	250.658
65	0.39811	56586.4	4490.11	56764.2	4.53689	254.964
66	0.31623	56961.1	5090.06	57188.1	5.1064	259.814
67	0.25119	57487.5	5762.07	57775.6	5.72374	265.309
68	0.19953	57971.4	6611.48	58347.2	6.50632	271.604
69	0.15849	58529.1	7573.9	59017.1	7.37333	278.899
70	0.12589	58947.4	8841.61	59606.8	8.53029	287.419
71	0.1	59799.4	10438.3	60703.6	9.90153	297.789

File: Z_p19_1.txt
Index	Frequency (Hz)	Z' (Ω)	-Z'' (Ω)	Z (Ω)	-Phase (°)	Time (s)
1	1000000	3202.43	9221.18	9761.44	70.8483	15.041
2	794330	5586.99	10137.6	11575.2	61.1401	16.7311
3	630960	8241.55	11473.4	14126.6	54.3096	18.4311
4	501190	10933.4	12794.9	16830	49.4858	20.1711
5	398110	14531.1	15531.9	21269.5	46.9065	24.2062
6	316230	17921.8	16412.7	24301.6	42.4833	25.5612
7	251190	20667.3	16589.2	26501.7	38.7533	28.9313
8	199530	23987.5	16807.9	29290	35.0188	30.1863
9	158490	27190	16625	31869.9	31.4432	31.5413
10	125890	30266.6	16103.1	34283.8	28.0148	32.8314
11	100000	33075.1	15341.7	36460	24.8839	34.1864
12	79433	35577.6	14311	38348	21.9123	35.4464
13	63096	37850.2	13219.1	40092.2	19.2517	36.7964
14	50119	39821.3	12041.5	41602.1	16.8247	38.1515
15	39811	41511.1	10833	42901.4	14.6261	39.4515
16	31623	42814	9593.9	43875.7	12.6304	40.7365
17	25119	43924.9	8700.33	44778.3	11.2037	42.0165
18	19953	44907.9	7885.14	45594.9	9.95875	43.3066
19	15849	45830.1	7140.41	46383	8.85559	44.5766
20	12589	46594.6	6509.33	47047.1	7.95283	45.8816
21	10000	47276	5934.12	47647	7.15439	48.1667
22	7943.3	47959.9	5511.21	48275.5	6.55528	49.3767
23	6309.6	48582.5	5167.19	48856.5	6.0711	50.7867
24	5011.9	49175.7	4888.66	49418.1	5.67725	52.1967
25	3981.1	49764.7	4668.13	49983.1	5.3589	53.4767
26	3162.3	50311.9	4499.06	50512.7	5.10998	54.9768
27	2511.9	50876.2	4370.64	51063.6	4.91008	56.3318
28	1995.3	51440.4	4282.99	51618.4	4.75954	57.6368
29	1584.9	51981.9	4220.42	52152.9	4.64167	58.8319
30	1258.9	52539.6	4182.49	52705.9	4.55151	60.2319
31	1000	53133.3	4164.31	53296.3	4.48138	61.6719
32	794.33	53694.7	4158.59	53855.5	4.42866	63.1319
33	630.96	54288.5	4166.84	54448.1	4.38906	64.497
34	501.19	54869.5	4175.98	55028.2	4.35225	65.932
35	398.11	55489.7	4191.86	55647.8	4.3201	67.182
36	316.23	56103.4	4213.92	56261.4	4.29541	68.642
37	251.19	56727.1	4229.62	56884.6	4.26413	69.9571
38	199.53	57346	4243.05	57502.7	4.23163	71.2071
39	158.49	57967.3	4248.4	58122.7	4.19169	72.6821
40	125.89	58594.6	4243.88	58748.1	4.14258	74.1421
41	100	59202.6	4235.61	59354	4.09221	75.4772
42	79.433	59832.4	4221.42	59981.1	4.03577	76.9622
43	63.096	60490.4	4186.83	60635.1	3.9594	78.3872
44	50.119	61127.8	4166.33	61269.6	3.89912	79.8122
45	39.811	61711.6	4133.68	61849.9	3.83217	88.9824
46	31.623	62343.6	4091.79	62477.7	3.7551	90.7574
47	25.119	62956.6	4036.58	63085.8	3.66861	92.4775
48	19.953	63570.5	3998.31	63696.1	3.59892	94.3425
49	15.849	64136.1	3932.92	64256.6	3.50906	96.3875
50	12.589	64696.2	3877.83	64812.3	3.43015	98.5576
51	10	65303.4	3807.21	65414.3	3.33659	100.883
52	7.9433	65837.5	3740.27	65943.7	3.25152	103.263
53	6.3096	66355.1	3657.61	66455.8	3.15505	105.953
54	5.0119	66876	3597.71	66972.7	3.07936	108.358
55	3.9811	67375.9	3526.99	67468.1	2.99658	110.998
56	3.1623	67836.6	3488.41	67926.2	2.94377	113.618
57	2.5119	68256	3474.02	68344.3	2.91366	116.288
58	1.9953	68712.2	3475.25	68800	2.89538	119.268
59	1.5849	69086	3530.23	69176.1	2.92522	122.323
60	1.2589	69487.9	3629.61	69582.7	2.99006	125.448
61	1	69887.1	3816.69	69991.2	3.12594	128.933
62	0.79433	70294.4	4026.85	70409.6	3.27863	132.478
63	0.63096	70767.2	4312.29	70898.5	3.48708	136.108
64	0.50119	71200	4698.36	71354.8	3.77537	140.163
65	0.39811	71641.9	5225.36	71832.2	4.17161	144.628
66	0.31623	72182.4	5789.81	72414.2	4.58592	149.454
67	0.25119	72705.9	6487.27	72994.8	5.09878	155.159
68	0.19953	73370.1	7278.82	73730.3	5.6656	161.529
69	0.15849	74050.3	8295.05	74513.5	6.39158	168.769
70	0.12589	74883.1	9543.14	75488.8	7.26265	177.509
71	0.1	75701	10753.3	76460.9	8.08478	187.794

File: Z_p20_1.txt
Index	Frequency (Hz)	Z' (Ω)	-Z'' (Ω)	Z (Ω)	-Phase (°)	Time (s)
1	1000000	2912.31	8066	8575.66	70.1473	15.1251
2	794330	4788	8894.49	10101.3	61.706	16.5951
3	630960	7016.47	10230.6	12405.5	55.5564	18.2101
4	501190	9111.59	11492.1	14665.9	51.5905	19.7852
5	398110	12119.6	14021.6	18533.5	49.1614	23.2602
6	316230	14893.1	15074.6	21190.7	45.3471	24.7803
7	251190	17526.6	15562.4	23438.7	41.6028	28.4053
8	199530	20575.5	16157.3	26161.2	38.1413	29.7853
9	158490	23656.2	16400.2	28785.1	34.7325	31.1054
10	125890	26687.2	16319.8	31281.6	31.4467	32.5254
11	100000	29627.9	15955.3	33650.9	28.3035	33.9804
12	79433	32344.1	15319.7	35788.7	25.3445	35.3654
13	63096	34912.9	14535.2	37817.8	22.6033	36.8755
14	50119	37235	13580.1	39634.1	20.0376	38.4355
15	39811	39363.8	12502	41301.5	17.62	39.9405
16	31623	41033.4	11337.4	42570.8	15.4454	41.3306
17	25119	42479.5	10395.4	43732.9	13.751	42.7956
18	19953	43851.3	9533.74	44875.7	12.2658	44.0956
19	15849	45068.8	8704.03	45901.6	10.9308	45.5506
20	12589	46088.3	7953.66	46769.6	9.79133	46.9307
21	10000	47018.2	7252.09	47574.1	8.76822	49.1957
22	7943.3	47864.5	6695.56	48330.5	7.96319	50.6257
23	6309.6	48666.4	6213.96	49061.5	7.27643	52.0908
24	5011.9	49420.4	5809.07	49760.6	6.70401	53.5708
25	3981.1	50090.3	5459.76	50387	6.22059	54.8508
26	3162.3	50741.6	5176.96	51005.1	5.82549	56.1108
27	2511.9	51382.6	4952.43	51620.7	5.50535	57.4959
28	1995.3	51983.6	4760.73	52201.2	5.23263	58.8559
29	1584.9	52591.7	4620.45	52794.2	5.02085	60.1959
30	1258.9	53180.2	4508.51	53371	4.84584	61.4109
31	1000	53774.2	4427.55	53956.1	4.70689	62.881
32	794.33	54374.7	4370.65	54550.1	4.59556	64.461
33	630.96	54959.3	4329.22	55129.6	4.50397	65.841
34	501.19	55587.9	4304.47	55754.3	4.42789	67.281
35	398.11	56199.2	4288.44	56362.6	4.36366	68.5161
36	316.23	56803.5	4279.56	56964.5	4.30851	69.9311
37	251.19	57445.6	4274.95	57604.5	4.25595	71.2661
38	199.53	58017.7	4273.51	58174.8	4.21273	72.5261
39	158.49	58640.1	4254.14	58794.2	4.14934	73.8612
40	125.89	59265.6	4245.87	59417.5	4.09775	75.2262
41	100	59889.1	4234.15	60038.6	4.04407	76.6162
42	79.433	60508.7	4213.02	60655.2	3.98288	78.0162
43	63.096	61146.4	4166.49	61288.2	3.89808	79.4913
44	50.119	61745.6	4152.03	61885.1	3.84701	80.9563
45	39.811	62380.1	4115.54	62515.7	3.77463	90.2765
46	31.623	62988.2	4070.57	63119.6	3.69756	92.0865
47	25.119	63602.3	4007.15	63728.4	3.60506	93.6615
48	19.953	64174.1	3976.35	64297.2	3.54562	95.5866
49	15.849	64770.5	3920.08	64889	3.46346	97.7416
50	12.589	65336.4	3860.14	65450.3	3.38116	99.7666
51	10	65865.6	3800.62	65975.2	3.30245	102.167
52	7.9433	66436.5	3742.68	66541.9	3.22433	104.647
53	6.3096	66964.1	3668.8	67064.5	3.13596	107.097
54	5.0119	67456.1	3619.21	67553.1	3.07114	109.542
55	3.9811	67961.8	3567.6	68055.4	3.00494	112.107
56	3.1623	68423.8	3551.54	68515.9	2.97127	114.767
57	2.5119	68854.2	3541.59	68945.2	2.94448	117.272
58	1.9953	69258	3591.78	69351.1	2.96875	119.932
59	1.5849	69691.8	3670.69	69788.4	3.015	122.712
60	1.2589	70058.4	3827.63	70162.9	3.12724	125.797
61	1	70430.2	4050.9	70546.6	3.29183	129.192
62	0.79433	70890.7	4349	71024	3.51058	132.542
63	0.63096	71223.9	4761.27	71382.9	3.82449	136.082
64	0.50119	71702.9	5279.09	71897	4.21077	139.827
65	0.39811	72145.3	6012.3	72395.4	4.76379	144.212
66	0.31623	72721.6	6834.51	73042	5.369	149.053
67	0.25119	73262.1	7870.77	73683.7	6.13194	154.603
68	0.19953	73998.3	8985.75	74541.9	6.92363	160.963
69	0.15849	74800.6	10428.7	75524.1	7.93698	168.388
70	0.12589	75985.3	12186	76956.3	9.1111	176.918
71	0.1	76954.8	13844.5	78190.2	10.1987	187.233

File: Z_p21_1.txt
Index	Frequency (Hz)	Z' (Ω)	-Z'' (Ω)	Z (Ω)	-Phase (°)	Time (s)
1	1000000	3767.51	6033.97	7113.57	58.0201	16.5221
2	794330	5165.43	6209.84	8077.36	50.2458	17.9021
3	630960	6630.55	6528.02	9304.8	44.5536	19.2471
4	501190	8004.69	6886.77	10559.5	40.7068	20.7471
5	398110	10052.9	7434.31	12503.2	36.4835	23.9672
6	316230	11487.1	7353.33	13639.1	32.6248	25.2072
7	251190	12715.6	7147.69	14586.8	29.3412	27.4223
8	199530	14082.8	6967.75	15712.3	26.3248	28.7373
9	158490	15341	6663.16	16725.6	23.477	30.1323
10	125890	16481.5	6256.99	17629.2	20.7887	31.3923
11	100000	17488.7	5793.6	18423.3	18.3288	32.7524
12	79433	18374.2	5286.68	19119.6	16.0517	34.0324
13	63096	19142.6	4780.66	19730.5	14.0222	35.4124
14	50119	19796.9	4269.08	20251.9	12.1691	36.7574
15	39811	20346.3	3775.79	20693.7	10.5131	38.0875
16	31623	20793.4	3299.54	21053.6	9.01661	39.4025
17	25119	21151.7	2919.47	21352.3	7.8586	40.6575
18	19953	21472.2	2566.96	21625.1	6.81726	41.9325
19	15849	21738.2	2251.76	21854.5	5.91389	43.2026
20	12589	21970.4	1976.5	22059.1	5.14062	44.4776
21	10000	22130.4	1720.92	22197.2	4.44652	45.8276
22	7943.3	22329.3	1526.51	22381.4	3.91086	47.1176
23	6309.6	22469.7	1355.68	22510.6	3.45269	48.4877
24	5011.9	22602.3	1211.93	22634.8	3.06925	49.7527
25	3981.1	22728.4	1087.22	22754.4	2.73866	51.0227
26	3162.3	22843.4	989.159	22864.8	2.47946	52.3527
27	2511.9	22948.9	896.583	22966.4	2.23733	53.6628
28	1995.3	23035	821.683	23049.7	2.04293	54.8978
29	1584.9	23136.7	758.649	23149.1	1.87805	56.1578
30	1258.9	23222.8	702.054	23233.4	1.7316	57.4628
31	1000	23292	657.43	23301.3	1.61678	58.7228
32	794.33	23381.9	618.909	23390.1	1.51624	60.0829
33	630.96	23458.7	584.134	23465.9	1.4264	61.4079
34	501.19	23519.1	555.547	23525.7	1.35314	62.7029
35	398.11	23596.4	531.627	23602.4	1.29065	63.9929
36	316.23	23669.2	512.626	23674.8	1.24071	65.268
37	251.19	23733.1	494.678	23738.2	1.19407	66.548
38	199.53	23784.4	482.173	23789.3	1.16138	67.848
39	158.49	23844.1	473.475	23848.8	1.13758	69.178
40	125.89	23900.4	466.738	23905	1.11875	70.5381
41	100	23951.7	466.456	23956.3	1.11568	71.9081
42	79.433	24013.4	468.765	24018	1.11833	73.3481
43	63.096	24050	479.389	24054.8	1.14193	74.7881
44	50.119	24115.5	530.793	24121.3	1.2609	93.0385
45	39.811	24165.3	505.854	24170.6	1.1992	102.054
46	31.623	24221.1	532.601	24227	1.25968	103.664
47	25.119	24266.1	570.639	24272.8	1.34712	105.339
48	19.953	24332.8	622.712	24340.8	1.46596	107.224
49	15.849	24399.2	692.202	24409	1.62504	109.194
50	12.589	24459.6	769.308	24471.7	1.80148	111.249
51	10	24539.7	840.469	24554.1	1.96157	113.544
52	7.9433	24636.4	935.141	24654.1	2.17377	115.799
53	6.3096	24757.2	1063.52	24780.1	2.45979	118.219
54	5.0119	24842.3	1186.7	24870.6	2.73491	120.644
55	3.9811	24986.6	1358.73	25023.5	3.11259	123.114
56	3.1623	25108.2	1552.74	25156.2	3.53877	125.624
57	2.5119	25283.1	1761.67	25344.4	3.9858	128.189
58	1.9953	25434	2008.65	25513.2	4.51555	130.809
59	1.5849	25700.8	2273.52	25801.2	5.05528	133.559
60	1.2589	25978.7	2636.33	26112.1	5.79456	136.409
61	1	26255.3	2964.44	26422.1	6.44188	139.719
62	0.79433	26609.8	3370.72	26822.4	7.21932	142.934
63	0.63096	26956.9	3805.59	27224.2	8.0355	146.504
64	0.50119	27357.8	4363.15	27703.5	9.06148	150.34
65	0.39811	27744.4	4972.6	28186.5	10.1612	154.62
66	0.31623	28255.4	5739.15	28832.4	11.4815	159.44
67	0.25119	28732.1	6498.09	29457.7	12.7437	164.835
68	0.19953	29298	7453.57	30231.2	14.2736	171.12
69	0.15849	29841.4	8673.77	31076.4	16.2072	178.45
70	0.12589	30600.6	10283.3	32282.2	18.5749	187.01
71	0.1	31354.4	11740.3	33480.4	20.5279	197.195

File: Z_p22_1.txt
Index	Frequency (Hz)	Z' (Ω)	-Z'' (Ω)	Z (Ω)	-Phase (°)	Time (s)
1	1000000	4085.04	6603.6	7764.99	58.2587	15.7051
2	794330	5595.71	6555.51	8618.97	49.5163	17.1601
3	630960	7284.16	6790.75	9958.58	42.9923	18.4701
4	501190	8857.46	7060.83	11327.4	38.5605	19.9301
5	398110	10948.1	7528.98	13287.1	34.5162	23.1052
6	316230	12431.6	7418.38	14476.8	30.826	24.3852
7	251190	13624.6	6955.66	15297.4	27.0453	26.6253
8	199530	14947	6638.71	16355	23.9484	28.1003
9	158490	16104.9	6204.96	17258.9	21.0708	29.3553
10	125890	17124.7	5701.98	18049.1	18.4161	30.6353
11	100000	17987.9	5167.09	18715.3	16.0269	31.9804
12	79433	18730.7	4630.73	19294.6	13.8866	33.2704
13	63096	19340.3	4111.47	19772.5	12.0016	34.6304
14	50119	19862.9	3620.27	20190.1	10.3295	35.9154
15	39811	20300.7	3158.27	20544.9	8.84287	37.2005
16	31623	20628.9	2733.07	20809.2	7.54703	38.4655
17	25119	20890	2401.62	21027.6	6.55822	39.8005
18	19953	21129.8	2103.5	21234.3	5.68514	41.0505
19	15849	21337.5	1842.48	21416.9	4.93522	42.3306
20	12589	21508.4	1617.83	21569.2	4.30161	43.7706
21	10000	21638.9	1412.24	21684.9	3.73406	45.0756
22	7943.3	21791.9	1258.79	21828.2	3.30597	46.3956
23	6309.6	21916.5	1127.56	21945.5	2.94517	47.6707
24	5011.9	22038.3	1016.05	22061.7	2.6397	48.9407
25	3981.1	22139.5	920.094	22158.6	2.37978	50.2107
26	3162.3	22240.8	842.787	22256.7	2.17011	51.5307
27	2511.9	22332	772.538	22345.4	1.98126	52.8057
28	1995.3	22425.6	713.331	22436.9	1.82189	54.1458
29	1584.9	22503.6	661.356	22513.3	1.68337	55.3908
30	1258.9	22586.1	617.44	22594.5	1.56592	56.6408
31	1000	22665.1	578.726	22672.5	1.46266	57.8958
32	794.33	22732.3	542.383	22738.8	1.36679	59.3059
33	630.96	22802.3	511.985	22808.1	1.28626	60.5909
34	501.19	22873.3	481.822	22878.4	1.20675	61.8509
35	398.11	22936.8	456.873	22941.4	1.14111	63.1959
36	316.23	22989	433.049	22993	1.07917	64.501
37	251.19	23060.5	410.098	23064.1	1.01882	65.796
38	199.53	23096.6	390.385	23099.9	0.968336	67.076
39	158.49	23155.5	370.881	23158.4	0.917628	68.396
40	125.89	23188.6	354.081	23191.3	0.874818	69.9211
41	100	23238	338.039	23240.5	0.833411	71.2561
42	79.433	23280	325.018	23282.3	0.79987	72.6511
43	63.096	23319.5	314.406	23321.7	0.772444	74.1911
44	50.119	23379.8	309.678	23381.9	0.758868	92.5115
45	39.811	23377.6	299.072	23379.5	0.73295	101.652
46	31.623	23428.1	287.635	23429.8	0.703407	103.232
47	25.119	23453.2	308.386	23455.2	0.753337	104.892
48	19.953	23486.8	306.577	23488.8	0.747849	106.857
49	15.849	23525.5	313.505	23527.6	0.763488	108.837
50	12.589	23566.8	334.925	23569.2	0.814217	111.042
51	10	23591.1	347.632	23593.7	0.844232	113.322
52	7.9433	23628.4	375.854	23631.4	0.911319	115.552
53	6.3096	23672	426.929	23675.8	1.03323	117.992
54	5.0119	23717.9	475.266	23722.7	1.14795	120.317
55	3.9811	23752.8	503.917	23758.1	1.21535	122.742
56	3.1623	23795	598.952	23802.5	1.44191	125.277
57	2.5119	23846.2	611.597	23854	1.46918	127.822
58	1.9953	23912	711.334	23922.6	1.70393	130.397
59	1.5849	24020.9	825.09	24035	1.96727	133.062
60	1.2589	24078.1	1038.26	24100.5	2.4691	136.032
61	1	24151.3	1155.76	24179	2.73979	139.377
62	0.79433	24281.4	1337.16	24318.2	3.15205	142.622
63	0.63096	24390.8	1542.63	24439.5	3.61893	146.112
64	0.50119	24504.3	1804.85	24570.7	4.21247	150.033
65	0.39811	24647.8	2101.21	24737.2	4.87263	154.248
66	0.31623	24797.3	2497.42	24922.8	5.75105	159.013
67	0.25119	25018.2	2894.57	25185.1	6.59971	164.443
68	0.19953	25221.2	3409.8	25450.7	7.69945	170.688
69	0.15849	25415.9	4021.15	25732	8.99048	177.933
70	0.12589	25646.8	4906.27	26111.8	10.8299	186.453
71	0.1	26040.5	5756.77	26669.3	12.4659	196.668

File: Z_p23_1.txt
Index	Frequency (Hz)	Z' (Ω)	-Z'' (Ω)	Z (Ω)	-Phase (°)	Time (s)
1	1000000	3807.47	7855.53	8729.61	64.1411	17.1011
2	794330	5722.87	8145.21	9954.68	54.9079	18.5761
3	630960	7792.95	8801.21	11755.5	48.477	20.0861
4	501190	9902.67	9404.49	13656.8	43.5219	22.0062
5	398110	12638.7	10875.1	16673.5	40.7106	24.6762
6	316230	14695.6	11069.5	18398.2	36.9892	26.3562
7	251190	16539.4	11045.1	19888.3	33.7353	30.1213
8	199530	18598.6	11086.6	21652.3	30.799	31.4713
9	158490	20591.7	10968.2	23330.6	28.042	32.9814
10	125890	22478.1	10707.6	24898.1	25.4711	34.4564
11	100000	24260.2	10331.7	26368.6	23.0678	35.9464
12	79433	25956.1	9867.31	27768.3	20.8145	37.4215
13	63096	27534.1	9332.85	29072.8	18.7244	39.2015
14	50119	28991.2	8718.47	30273.8	16.7375	40.8115
15	39811	30333.8	8041.31	31381.5	14.8473	42.9166
16	31623	31458.9	7291.77	32292.9	13.05	44.4966
17	25119	32414.8	6649.52	33089.8	11.5928	46.1666
18	19953	33323.7	6025.62	33864.1	10.2495	47.7566
19	15849	34089.4	5401.26	34514.7	9.00332	49.3617
20	12589	34751.4	4839.4	35086.8	7.92789	50.9317
21	10000	35293	4279.83	35551.6	6.91425	52.4517
22	7943.3	35803.9	3820.08	36007.1	6.0901	53.8568
23	6309.6	36254.9	3410.29	36415	5.37367	55.3218
24	5011.9	36612.2	3041.67	36738.3	4.74911	56.8218
25	3981.1	36962.1	2723.12	37062.3	4.21355	58.2018
26	3162.3	37248.9	2442.33	37328.8	3.7514	59.4519
27	2511.9	37521.8	2200.02	37586.3	3.35559	60.8469
28	1995.3	37757.6	1990.4	37810	3.01756	62.3069
29	1584.9	37971.9	1809.04	38014.9	2.72759	63.7819
30	1258.9	38173.2	1652.73	38209	2.4791	65.302
31	1000	38351.1	1519.4	38381.2	2.26877	66.877
32	794.33	38529.2	1404.65	38554.8	2.08789	68.567
33	630.96	38692.7	1307.14	38714.8	1.93486	70.1371
34	501.19	38828	1226.19	38847.3	1.8088	71.7171
35	398.11	38975.6	1160.39	38992.9	1.70531	73.2721
36	316.23	39115.8	1100.29	39131.2	1.61124	74.9071
37	251.19	39253	1056.27	39267.2	1.54142	76.4772
38	199.53	39370.3	1021.06	39383.5	1.48562	78.1122
39	158.49	39490.1	999.579	39502.7	1.44997	79.8172
40	125.89	39591.7	979.343	39603.8	1.41698	81.5073
41	100	39724.2	973.196	39736.1	1.4034	83.1573
42	79.433	39834.4	974.339	39846.3	1.40116	84.8773
43	63.096	39924.4	997.353	39936.9	1.43101	86.5874
44	50.119	40074.7	1012.59	40087.5	1.44742	88.2724
45	39.811	40184.4	1043.01	40197.9	1.48681	97.7026
46	31.623	40320.2	1093.27	40335.1	1.55317	99.5626
47	25.119	40428.1	1149.4	40444.5	1.62852	101.243
48	19.953	40582.1	1238.2	40601	1.74761	103.248
49	15.849	40703.6	1333.03	40725.4	1.87575	105.448
50	12.589	40862.4	1448.06	40888.1	2.02956	107.978
51	10	41023.4	1588.38	41054.1	2.21733	110.413
52	7.9433	41194.8	1754.85	41232.2	2.43926	112.973
53	6.3096	41405.7	1947.05	41451.5	2.69227	115.478
54	5.0119	41593	2170.5	41649.6	2.98723	117.883
55	3.9811	41833.7	2439.5	41904.7	3.33738	120.378
56	3.1623	42067.4	2749.85	42157.2	3.73998	122.978
57	2.5119	42327.8	3125.34	42443	4.22286	125.548
58	1.9953	42580.1	3571.04	42729.6	4.79398	128.233
59	1.5849	42934.5	4097.35	43129.6	5.45138	131.048
60	1.2589	43223.4	4732.44	43481.7	6.24831	133.873
61	1	43590	5551.61	43942.1	7.25809	137.173
62	0.79433	44072	6446.86	44541	8.32222	140.383
63	0.63096	44557.9	7564.87	45195.5	9.63558	143.838
64	0.50119	44991.5	8951.27	45873.3	11.2523	147.628
65	0.39811	45667	10620.4	46885.7	13.092	151.834
66	0.31623	46466.7	12885.1	48220.1	15.4985	156.504
67	0.25119	47493.3	15052.2	49821.5	17.5852	161.889
68	0.19953	48737.1	17892.6	51917.7	20.1594	168.169
69	0.15849	50035.4	21305.5	54382.6	23.0647	175.474
70	0.12589	51628.4	25766.7	57701	26.5228	184.094
71	0.1	54185.9	30278	62071.5	29.1956	194.374