Folder: Streamlit_cement_impedance/data/20200504 (part 9)

File: Z_p51_2.txt
Index	Frequency (Hz)	Z' (Ω)	-Z'' (Ω)	Z (Ω)	-Phase (°)	Time (s)
1	1000000	1053.15	400.776	1126.83	20.8343	342.647
2	794330	1091.7	368.157	1152.11	18.6357	344.267
3	630960	1142.08	336.905	1190.74	16.4356	345.692
4	501190	1191.63	306.641	1230.45	14.4308	347.212
5	398110	1226.31	269.854	1255.65	12.4104	348.652
6	316230	1269.39	242.254	1292.3	10.8046	350.157
7	251190	1302.94	215.691	1320.67	9.39961	351.442
8	199530	1332.32	191.522	1346.02	8.18025	352.867
9	158490	1354.29	169.448	1364.85	7.13176	354.297
10	125890	1374.82	150.617	1383.04	6.25205	355.587
11	100000	1390.91	133.577	1397.31	5.4856	359.557
12	79433	1404.65	118.853	1409.67	4.8365	360.752
13	63096	1416.55	106.679	1420.56	4.30675	362.157
14	50119	1428.84	96.4462	1432.09	3.86159	363.577
15	39811	1438.93	87.622	1441.59	3.48467	365.062
16	31623	1446.16	80.3446	1448.39	3.17992	366.492
17	25119	1454.72	74.8241	1456.64	2.94444	367.812
18	19953	1462.64	70.6267	1464.34	2.76451	369.112
19	15849	1470.37	67.6172	1471.93	2.63298	370.452
20	12589	1477.03	65.6345	1478.49	2.54437	371.857
21	10000	1484.78	64.7601	1486.19	2.49743	373.277
22	7943.3	1492.39	64.9283	1493.81	2.49115	374.648
23	6309.6	1500.01	65.9745	1501.46	2.5184	375.958
24	5011.9	1507.31	67.8149	1508.83	2.57604	377.298
25	3981.1	1515.03	70.7024	1516.68	2.6719	378.663
26	3162.3	1523.48	74.3487	1525.29	2.79393	379.953
27	2511.9	1532.12	78.8866	1534.15	2.94748	381.328
28	1995.3	1542.34	84.6025	1544.66	3.13971	382.693
29	1584.9	1551.62	91.1404	1554.29	3.36163	384.068
30	1258.9	1562.84	98.8566	1565.96	3.6194	385.513
31	1000	1575.43	107.951	1579.12	3.91989	386.903
32	794.33	1588.97	118.383	1593.37	4.26083	388.343
33	630.96	1602.58	130.294	1607.87	4.64805	389.698
34	501.19	1619.35	144.003	1625.74	5.08174	391.028
35	398.11	1636.14	159.493	1643.9	5.56766	392.658
36	316.23	1656	177.139	1665.45	6.1056	394.063
37	251.19	1678.13	197.076	1689.66	6.69802	395.448
38	199.53	1702.12	219.68	1716.23	7.3541	396.778
39	158.49	1729.12	245.156	1746.41	8.06967	398.138
40	125.89	1757.94	273.304	1779.06	8.83694	399.703
41	100	1791.48	305.366	1817.32	9.67336	401.108
42	79.433	1829.18	341.439	1860.78	10.5732	402.673
43	63.096	1870.06	381.399	1908.56	11.5274	404.223
44	50.119	1917.12	426.95	1964.09	12.5551	414.283
45	39.811	1968.29	478.098	2025.52	13.6527	423.358
46	31.623	2026.51	535.561	2096.08	14.8036	425.208
47	25.119	2091.51	600.201	2175.93	16.0119	426.878
48	19.953	2164.68	674.466	2267.32	17.3059	428.904
49	15.849	2242.97	756.116	2366.98	18.6292	430.909
50	12.589	2330.7	849.726	2480.76	20.0309	432.969
51	10	2431.6	955.202	2612.49	21.4463	435.304
52	7.9433	2539.37	1075.13	2757.59	22.947	437.649
53	6.3096	2660.87	1211.25	2923.59	24.4755	440.114
54	5.0119	2796.05	1367.92	3112.73	26.0694	442.534
55	3.9811	2943.26	1546.05	3324.61	27.7123	445.109
56	3.1623	3104.54	1751.84	3564.7	29.4353	449.779
57	2.5119	3282.13	1991.79	3839.22	31.2518	452.269
58	1.9953	3480.79	2272.95	4157.18	33.1445	454.919
59	1.5849	3700.19	2604.99	4525.19	35.1462	457.699
60	1.2589	3951.18	2995.87	4958.54	37.1702	460.619
61	1	4220.45	3457.2	5455.68	39.3228	468.369
62	0.79433	4531.06	4003.97	6046.68	41.4661	474.799
63	0.63096	4887.97	4656.36	6750.85	43.6099	479.044
64	0.50119	5284.84	5418.63	7569.09	45.7161	483.32
65	0.39811	5746.03	6334.32	8552.22	47.788	487.525
66	0.31623	6301.57	7424.17	9737.97	49.6757	493.06
67	0.25119	6911.69	8740.7	11143.2	51.6649	498.48
68	0.19953	7669.24	10247.5	12799.6	53.1889	505.8
69	0.15849	8502.97	12033.2	14734.3	54.754	513.045
70	0.12589	9432.73	14233.1	17075.1	56.4664	521.675
71	0.1	10719.2	16809.3	19936.2	57.4745	531.85

File: Z_p51_3.txt
Index	Frequency (Hz)	Z' (Ω)	-Z'' (Ω)	Z (Ω)	-Phase (°)	Time (s)
1	1000000	1055.09	401.512	1128.91	20.8342	680.363
2	794330	1093.15	368.804	1153.69	18.6432	682.699
3	630960	1143.86	338.366	1192.85	16.4788	684.955
4	501190	1193.78	308.75	1233.06	14.5008	687.631
5	398110	1228.12	270.099	1257.47	12.4036	689.912
6	316230	1271.85	243.083	1294.87	10.8202	692.168
7	251190	1305.45	216.334	1323.25	9.40933	694.359
8	199530	1334.04	191.951	1347.78	8.1879	696.56
9	158490	1357.35	170.064	1367.97	7.14142	698.696
10	125890	1376.58	150.66	1384.8	6.24588	700.787
11	100000	1393.98	133.939	1400.4	5.48836	707.827
12	79433	1407.92	119.466	1412.98	4.85009	709.933
13	63096	1420.42	107.149	1424.46	4.31393	712.169
14	50119	1430.92	96.5404	1434.17	3.85976	714.29
15	39811	1440.97	87.8082	1443.64	3.48712	716.746
16	31623	1449.75	80.5895	1451.98	3.18172	718.962
17	25119	1458.26	75.092	1460.19	2.9478	721.173
18	19953	1465.8	70.8294	1467.51	2.76646	723.714
19	15849	1472.85	67.7856	1474.41	2.63509	726.62
20	12589	1480.5	65.8595	1481.97	2.5471	729.086
21	10000	1487.59	64.856	1489	2.4964	731.832
22	7943.3	1494.46	64.9554	1495.87	2.48874	734.008
23	6309.6	1502.16	66.0881	1503.61	2.51913	736.124
24	5011.9	1509.73	67.9032	1511.26	2.57525	738.285
25	3981.1	1518.38	70.6506	1520.02	2.66407	740.301
26	3162.3	1526.89	74.4118	1528.7	2.79007	742.537
27	2511.9	1536.02	78.9372	1538.05	2.94188	744.813
28	1995.3	1545.44	84.5501	1547.75	3.1315	747.009
29	1584.9	1555.02	91.1541	1557.69	3.35481	749
30	1258.9	1566.95	98.9087	1570.07	3.61183	751.236
31	1000	1578.29	107.765	1581.96	3.90609	753.332
32	794.33	1591.26	118.129	1595.64	4.24564	755.443
33	630.96	1606.11	130.127	1611.38	4.63199	757.524
34	501.19	1622.03	143.763	1628.38	5.06498	759.75
35	398.11	1639.06	159.127	1646.77	5.54515	761.717
36	316.23	1659.2	176.807	1668.59	6.08257	763.773
37	251.19	1681.44	196.651	1692.9	6.67067	765.949
38	199.53	1705.04	219.174	1719.07	7.3249	767.94
39	158.49	1732	244.415	1749.16	8.03238	770.026
40	125.89	1761.55	272.72	1782.54	8.80053	772.157
41	100	1794.48	304.628	1820.16	9.63459	774.348
42	79.433	1830.84	340.196	1862.18	10.5263	776.504
43	63.096	1872.63	380.551	1910.9	11.4871	778.81
44	50.119	1918.47	425.4	1965.07	12.5024	781.001
45	39.811	1970	476.527	2026.81	13.5982	790.802
46	31.623	2029.08	534.127	2098.2	14.7478	793.328
47	25.119	2092.92	598.565	2176.83	15.9603	795.799
48	19.953	2165.44	671.686	2267.22	17.2331	798.625
49	15.849	2244.2	752.972	2367.15	18.5476	801.356
50	12.589	2333.45	845.914	2482.04	19.9264	804.072
51	10	2431.37	951.521	2610.93	21.373	807.113
52	7.9433	2540.99	1071.03	2757.49	22.8554	810.099
53	6.3096	2661.31	1205.77	2921.72	24.374	814.866
54	5.0119	2794.69	1361.48	3108.69	25.9737	817.868
55	3.9811	2940.12	1537.82	3318.01	27.6116	824.126
56	3.1623	3103.77	1744.22	3560.29	29.3346	827.252
57	2.5119	3278.94	1983.09	3831.98	31.1654	830.558
58	1.9953	3481.02	2264.12	4152.56	33.0407	833.964
59	1.5849	3696.83	2591.94	4514.94	35.0353	837.63
60	1.2589	3939.22	2980.05	4939.45	37.1078	841.246
61	1	4212.75	3440.89	5439.39	39.2413	845.257
62	0.79433	4522.95	3984.75	6027.88	41.3803	849.313
63	0.63096	4870.83	4630.78	6720.8	43.5528	853.684
64	0.50119	5275.63	5402.43	7551.07	45.6804	858.465
65	0.39811	5734.68	6317.93	8532.46	47.7705	863.506
66	0.31623	6253.42	7387.58	9678.93	49.7528	869.022
67	0.25119	6871.12	8701.1	11087	51.7024	875.149
68	0.19953	7621.43	10192.9	12727.2	53.2137	882.065
69	0.15849	8494.16	12029.1	14725.8	54.7728	890.216
70	0.12589	9475.54	14158.7	17036.8	56.208	899.477
71	0.1	10569.3	16668.7	19737.2	57.6219	910.503

File: Z_p52_1.txt
Index	Frequency (Hz)	Z' (Ω)	-Z'' (Ω)	Z (Ω)	-Phase (°)	Time (s)
1	1000000	1363.64	523.51	1460.68	21.0021	22.9912
2	794330	1409.78	471.796	1486.63	18.5033	24.4162
3	630960	1475.17	425.184	1535.23	16.0784	25.8213
4	501190	1538.46	380.583	1584.83	13.8949	27.3463
5	398110	1582.74	326.515	1616.07	11.6564	28.7763
6	316230	1633.3	287.877	1658.48	9.99597	30.2163
7	251190	1672.96	251.29	1691.73	8.54237	31.4764
8	199530	1704.42	217.999	1718.31	7.28865	32.8514
9	158490	1717.18	180.844	1726.67	6.01192	34.2564
10	125890	1740.08	157.693	1747.21	5.17822	35.5914
11	100000	1758.2	137.139	1763.54	4.46003	37.0215
12	79433	1773.43	119.647	1777.47	3.85969	38.3615
13	63096	1785.94	104.712	1789	3.35548	39.7065
14	50119	1795.68	92.1222	1798.04	2.93682	41.0665
15	39811	1804.04	81.5354	1805.88	2.58778	42.3266
16	31623	1811.58	72.7066	1813.04	2.29829	43.6216
17	25119	1816.92	66.3205	1818.13	2.09046	44.9216
18	19953	1823.93	61.3505	1824.96	1.9265	46.1966
19	15849	1828.8	57.52	1829.7	1.80149	47.4567
20	12589	1835.59	54.7989	1836.41	1.70997	48.9467
21	10000	1840.54	52.882	1841.3	1.64576	50.2517
22	7943.3	1847.54	52.0811	1848.27	1.61471	51.6217
23	6309.6	1852.78	51.784	1853.51	1.60096	52.8768
24	5011.9	1858.51	52.1065	1859.24	1.60596	54.1368
25	3981.1	1864.34	53.073	1865.09	1.63063	55.3868
26	3162.3	1871.36	54.4512	1872.16	1.66667	56.6968
27	2511.9	1878.41	56.4779	1879.26	1.72218	57.9618
28	1995.3	1885.54	58.9284	1886.46	1.79007	59.2169
29	1584.9	1892.37	62.0428	1893.39	1.87781	60.3669
30	1258.9	1899.84	65.8823	1900.99	1.98609	61.7169
31	1000	1908.24	70.4238	1909.54	2.11355	62.9969
32	794.33	1916.44	75.9042	1917.94	2.26812	64.377
33	630.96	1925.7	82.3822	1927.46	2.44965	65.617
34	501.19	1935.28	90.1009	1937.38	2.6656	66.887
35	398.11	1946.71	99.2687	1949.24	2.91916	68.152
36	316.23	1957.78	109.927	1960.86	3.21371	69.4121
37	251.19	1970.68	122.474	1974.49	3.55624	70.7021
38	199.53	1984.29	136.681	1989	3.94039	71.9721
39	158.49	2000.33	153.309	2006.2	4.38267	73.2971
40	125.89	2019.25	171.866	2026.55	4.86492	74.6872
41	100	2037.91	192.842	2047.01	5.40566	76.0022
42	79.433	2062.52	216.976	2073.9	6.0054	77.3622
43	63.096	2088.14	243.612	2102.3	6.6543	78.7772
44	50.119	2119.46	273.715	2137.06	7.35866	88.6324
45	39.811	2152.33	307.408	2174.17	8.12835	97.6676
46	31.623	2190.25	344.222	2217.13	8.93163	99.2476
47	25.119	2231.64	385.099	2264.62	9.79074	100.848
48	19.953	2280.34	433.374	2321.16	10.7606	102.668
49	15.849	2332.35	484.851	2382.22	11.7434	104.548
50	12.589	2389.18	543.111	2450.13	12.8069	106.463
51	10	2453.7	609.59	2528.29	13.9519	108.733
52	7.9433	2522.19	684.995	2613.55	15.1943	110.978
53	6.3096	2599.23	769.015	2710.61	16.4815	113.363
54	5.0119	2682.38	868.179	2819.37	17.9347	115.728
55	3.9811	2775.52	982.758	2944.38	19.498	118.093
56	3.1623	2875.91	1114.55	3084.33	21.1836	120.498
57	2.5119	2989.07	1270.1	3247.72	23.0214	123.093
58	1.9953	3111.98	1451.73	3433.94	25.0089	125.723
59	1.5849	3247.02	1663.16	3648.18	27.122	131.038
60	1.2589	3398.37	1913.3	3899.95	29.3798	133.838
61	1	3570.02	2214.71	4201.19	31.814	137.108
62	0.79433	3761.18	2567.17	4553.78	34.3152	140.288
63	0.63096	3981.94	2984.42	4976.2	36.8511	143.753
64	0.50119	4214.48	3493.93	5474.43	39.6598	147.504
65	0.39811	4483.16	4094.74	6071.71	42.4073	151.704
66	0.31623	4801.27	4840	6817.47	45.2302	156.549
67	0.25119	5180.93	5692.47	7697.16	47.6935	161.974
68	0.19953	5628.61	6741.11	8782.02	50.1392	168.114
69	0.15849	6127.83	8003.95	10080.4	52.5623	175.319
70	0.12589	6754.51	9574.67	11717.4	54.7987	183.849
71	0.1	7562.14	11321.2	13614.5	56.2586	194.049

File: Z_p52_2.txt
Index	Frequency (Hz)	Z' (Ω)	-Z'' (Ω)	Z (Ω)	-Phase (°)	Time (s)
1	1000000	1363.24	524.14	1460.52	21.0309	315.997
2	794330	1410.16	470.794	1486.68	18.462	317.382
3	630960	1475.84	425.632	1535.99	16.0876	318.737
4	501190	1539.02	380.712	1585.41	13.8945	320.223
5	398110	1583.69	326.936	1617.09	11.6642	321.578
6	316230	1635.24	288.612	1660.52	10.0093	322.923
7	251190	1673.58	251.363	1692.35	8.54168	324.198
8	199530	1704.38	217.928	1718.25	7.28653	325.628
9	158490	1717.33	180.651	1726.81	6.00504	327.008
10	125890	1740.82	157.889	1747.96	5.18246	328.283
11	100000	1759.84	137.328	1765.19	4.46198	329.653
12	79433	1774.36	119.81	1778.4	3.86293	330.923
13	63096	1785.97	104.669	1789.03	3.35406	332.273
14	50119	1795.67	92.0294	1798.03	2.93388	333.638
15	39811	1804.58	81.5439	1806.42	2.58728	334.898
16	31623	1811.82	72.854	1813.28	2.30265	336.203
17	25119	1818.79	66.4533	1820	2.09249	337.473
18	19953	1824.82	61.2856	1825.85	1.92353	338.728
19	15849	1830.73	57.5639	1831.64	1.80096	339.978
20	12589	1836.11	54.7403	1836.93	1.70766	341.258
21	10000	1842.03	53.0836	1842.79	1.6507	342.543
22	7943.3	1848.12	52.1104	1848.86	1.6151	343.833
23	6309.6	1853.76	51.8626	1854.49	1.60254	345.133
24	5011.9	1860.72	52.2316	1861.46	1.6079	347.243
25	3981.1	1866.14	53.1014	1866.9	1.62992	348.458
26	3162.3	1873.48	54.5933	1874.27	1.66913	349.713
27	2511.9	1880.19	56.4595	1881.03	1.72	350.973
28	1995.3	1887.19	59.0472	1888.12	1.79211	352.218
29	1584.9	1893.89	62.0459	1894.9	1.8764	353.513
30	1258.9	1901.41	65.6729	1902.55	1.97815	354.823
31	1000	1909.81	70.4072	1911.1	2.11132	356.093
32	794.33	1918.3	75.8181	1919.8	2.26336	357.458
33	630.96	1926.97	82.3763	1928.73	2.44786	358.693
34	501.19	1936.47	90.0328	1938.56	2.66195	360.018
35	398.11	1947.42	99.1354	1949.94	2.91419	361.228
36	316.23	1959.51	109.91	1962.59	3.2104	362.503
37	251.19	1971.89	122.202	1975.67	3.54621	363.808
38	199.53	1985.72	136.685	1990.42	3.9377	365.063
39	158.49	2001.79	152.965	2007.63	4.3697	366.343
40	125.89	2020.3	171.587	2027.58	4.85454	367.718
41	100	2039.65	192.626	2048.72	5.39506	369.083
42	79.433	2064.15	216.499	2075.47	5.98761	370.453
43	63.096	2090.06	243.213	2104.17	6.63744	371.868
44	50.119	2120.77	273.153	2138.28	7.33925	381.754
45	39.811	2153.97	306.504	2175.67	8.09868	390.769
46	31.623	2192.56	343.481	2219.3	8.90343	392.429
47	25.119	2234.94	385.484	2267.94	9.78614	393.979
48	19.953	2281.23	432.092	2321.8	10.7254	395.944
49	15.849	2332.87	484.096	2382.57	11.7231	397.834
50	12.589	2390.18	541.976	2450.86	12.7758	399.834
51	10	2454.04	607.811	2528.19	13.911	402.069
52	7.9433	2523.83	683.144	2614.65	15.1458	404.324
53	6.3096	2600.33	769.31	2711.75	16.4809	406.704
54	5.0119	2683.4	867.251	2820.07	17.9103	409.109
55	3.9811	2775.71	980.819	2943.9	19.4613	411.474
56	3.1623	2876.53	1112.42	3084.13	21.1426	413.939
57	2.5119	2988.48	1268.18	3246.43	22.9942	416.519
58	1.9953	3114.21	1450.93	3435.63	24.9812	419.119
59	1.5849	3250.68	1664.31	3651.97	27.1119	421.829
60	1.2589	3399.35	1912.67	3900.5	29.3647	427.72
61	1	3566.63	2209.85	4195.74	31.782	430.875
62	0.79433	3762.62	2565.69	4554.12	34.2896	434.05
63	0.63096	3971.77	2985.73	4968.86	36.9336	437.54
64	0.50119	4216.73	3496.43	5477.76	39.6649	441.39
65	0.39811	4485.39	4104.53	6079.96	42.4612	445.605
66	0.31623	4819.06	4836.87	6827.79	45.1057	450.39
67	0.25119	5167.4	5718.43	7707.3	47.8978	455.785
68	0.19953	5604.6	6763.79	8784.1	50.3543	462.03
69	0.15849	6122.6	8047.37	10111.7	52.7354	469.285
70	0.12589	6797.5	9551.71	11723.5	54.5623	477.82
71	0.1	7487.49	11333.7	13583.6	56.5497	487.956

File: Z_p52_3.txt
Index	Frequency (Hz)	Z' (Ω)	-Z'' (Ω)	Z (Ω)	-Phase (°)	Time (s)
1	1000000	1364.88	523.862	1461.96	20.9975	595.696
2	794330	1410.94	472.527	1487.96	18.5158	597.882
3	630960	1476.05	425.874	1536.26	16.094	600.004
4	501190	1540.04	381.477	1586.59	13.9124	602.26
5	398110	1585.06	327.225	1618.49	11.6644	604.476
6	316230	1636.38	289.014	1661.71	10.0162	606.572
7	251190	1676.23	252.037	1695.07	8.55094	608.658
8	199530	1706.79	218.22	1720.69	7.28597	610.814
9	158490	1719.69	181.456	1729.23	6.0234	612.875
10	125890	1743.27	158.202	1750.43	5.18541	614.841
11	100000	1761.51	137.638	1766.88	4.4678	617.112
12	79433	1776.41	120.085	1780.46	3.8673	619.068
13	63096	1787.93	105.025	1791.01	3.36174	621.144
14	50119	1798.29	92.2408	1800.65	2.93634	623.265
15	39811	1807.6	81.7994	1809.45	2.59104	625.396
16	31623	1814.14	73.0737	1815.61	2.30663	627.367
17	25119	1820.44	66.6856	1821.66	2.0979	629.403
18	19953	1826.16	61.4459	1827.19	1.92714	631.424
19	15849	1832.52	57.6038	1833.43	1.80045	633.38
20	12589	1838.2	54.9318	1839.02	1.71169	635.321
21	10000	1844.39	53.0781	1845.15	1.64841	637.367
22	7943.3	1850.93	52.2194	1851.67	1.61603	639.463
23	6309.6	1856.15	51.9121	1856.87	1.60201	641.479
24	5011.9	1862.26	52.2691	1863	1.60773	643.525
25	3981.1	1868.64	53.245	1869.4	1.63214	645.571
26	3162.3	1875.68	54.5238	1876.47	1.66505	647.587
27	2511.9	1881.53	56.4721	1882.38	1.71916	649.523
28	1995.3	1888.94	59.1337	1889.86	1.79307	651.539
29	1584.9	1896.09	62.1731	1897.11	1.87807	653.631
30	1258.9	1904.2	65.7495	1905.34	1.97756	655.607
31	1000	1911.46	70.3875	1912.76	2.10891	657.558
32	794.33	1920.06	75.7835	1921.55	2.26025	659.784
33	630.96	1930.12	82.4512	1931.88	2.44609	662.035
34	501.19	1939.66	90.0985	1941.75	2.65951	664.226
35	398.11	1950.18	99.3006	1952.71	2.91491	666.212
36	316.23	1961.1	109.843	1964.18	3.20584	668.258
37	251.19	1974.34	122.387	1978.13	3.54715	670.274
38	199.53	1988.96	136.875	1993.66	3.93674	672.315
39	158.49	2004.1	153.047	2009.94	4.36703	674.436
40	125.89	2022.49	171.648	2029.76	4.85105	676.462
41	100	2041.74	192.706	2050.81	5.39177	678.463
42	79.433	2066.17	216.551	2077.49	5.98322	680.604
43	63.096	2092.98	243.297	2107.07	6.63055	682.765
44	50.119	2123.06	273.14	2140.56	7.33105	702.803
45	39.811	2156.58	306.621	2178.27	8.09204	712.505
46	31.623	2195.07	344.351	2221.92	8.91559	714.911
47	25.119	2237.85	385.33	2270.78	9.76983	717.182
48	19.953	2284.03	432.445	2324.6	10.7212	719.773
49	15.849	2337.07	484.567	2386.77	11.7137	722.419
50	12.589	2392.53	542.03	2453.16	12.765	725.21
51	10	2456.93	608.86	2531.25	13.9182	728.246
52	7.9433	2526.68	684.046	2617.64	15.1485	731.227
53	6.3096	2601.95	769.736	2713.42	16.4798	734.383
54	5.0119	2684.75	867.461	2821.42	17.906	737.624
55	3.9811	2778.9	981.511	2947.14	19.4533	740.74
56	3.1623	2879.42	1113.46	3087.21	21.1413	744.021
57	2.5119	2990.54	1269.24	3248.74	22.9973	747.362
58	1.9953	3111.6	1448.68	3432.3	24.9654	752.589
59	1.5849	3251.46	1662.48	3651.83	27.0807	756.05
60	1.2589	3400.67	1912.48	3901.55	29.3527	759.561
61	1	3573.02	2213.66	4203.18	31.7802	763.548
62	0.79433	3769.25	2571.35	4562.79	34.3015	767.539
63	0.63096	3979.76	2983.42	4973.87	36.857	771.78
64	0.50119	4218.03	3498.01	5479.76	39.6689	776.336
65	0.39811	4501.88	4109.27	6095.32	42.3895	781.207
66	0.31623	4800.65	4834.2	6812.91	45.1995	786.758
67	0.25119	5177.61	5726.02	7719.78	47.8794	792.944
68	0.19953	5626.61	6748.36	8786.31	50.1795	799.9
69	0.15849	6175.64	8022.41	10124.1	52.4109	807.846
70	0.12589	6791.29	9517.92	11692.4	54.4911	817.048
71	0.1	7482	11342.8	13588.2	56.5902	827.974

File: Z_p53_1.txt
Index	Frequency (Hz)	Z' (Ω)	-Z'' (Ω)	Z (Ω)	-Phase (°)	Time (s)
1	1000000	1457.43	575.233	1566.84	21.5387	25.3213
2	794330	1509.45	518.491	1596.02	18.9574	26.7513
3	630960	1581.63	467.94	1649.4	16.4813	28.2263
4	501190	1651.25	419.711	1703.76	14.2613	29.7513
5	398110	1702.23	362.931	1740.49	12.0358	31.1964
6	316230	1761.26	322.071	1790.46	10.3629	32.5014
7	251190	1804.97	282.504	1826.94	8.89545	33.8314
8	199530	1820.64	234.021	1835.61	7.32453	35.2414
9	158490	1855.51	206.603	1866.97	6.35349	36.7715
10	125890	1882.23	181.31	1890.94	5.50219	38.0615
11	100000	1904.25	158.977	1910.88	4.77228	39.4315
12	79433	1921.87	139.786	1926.94	4.16004	40.6965
13	63096	1935.86	123.256	1939.78	3.64311	42.0816
14	50119	1948.44	109.319	1951.5	3.21126	43.4666
15	39811	1958.91	97.7087	1961.34	2.8555	44.8316
16	31623	1968.19	88.1611	1970.16	2.56474	46.1416
17	25119	1976.37	81.0969	1978.04	2.34971	47.4467
18	19953	1983.02	75.5679	1984.46	2.18234	48.8417
19	15849	1990.92	71.645	1992.21	2.06095	50.1467
20	12589	1999.51	68.9938	2000.7	1.97622	51.4217
21	10000	2005.63	67.5972	2006.76	1.93035	52.8118
22	7943.3	2012.55	67.181	2013.67	1.91188	54.1318
23	6309.6	2020.3	67.8367	2021.44	1.92312	55.4268
24	5011.9	2028.09	69.3145	2029.27	1.95745	56.7168
25	3981.1	2036.83	71.6101	2038.09	2.01355	58.0019
26	3162.3	2045.53	74.8006	2046.89	2.09425	59.2719
27	2511.9	2053.26	78.8365	2054.77	2.19884	60.5569
28	1995.3	2062.2	83.898	2063.91	2.32972	61.8669
29	1584.9	2073.38	89.9022	2075.33	2.4828	63.102
30	1258.9	2084.68	97.359	2086.95	2.67389	64.442
31	1000	2095.34	105.859	2098.02	2.89219	65.742
32	794.33	2108.7	115.983	2111.89	3.14822	67.152
33	630.96	2122	127.766	2125.85	3.44564	68.412
34	501.19	2137.03	141.517	2141.71	3.78867	69.7471
35	398.11	2153.67	157.633	2159.43	4.18619	71.0621
36	316.23	2171.74	176.108	2178.87	4.63601	72.4921
37	251.19	2192.8	197.355	2201.66	5.14285	73.7971
38	199.53	2215.63	221.419	2226.67	5.70689	75.1972
39	158.49	2243.38	248.791	2257.13	6.32824	76.5372
40	125.89	2274.17	279.25	2291.25	7.00044	78.7172
41	100	2307.84	313.266	2329.01	7.73007	79.9673
42	79.433	2348.93	351.073	2375.02	8.50057	81.4373
43	63.096	2392.87	392.336	2424.82	9.31139	82.9023
44	50.119	2444.31	436.711	2483.01	10.1298	92.7775
45	39.811	2501.92	487.167	2548.91	11.0186	101.793
46	31.623	2566.77	541.135	2623.19	11.905	103.513
47	25.119	2637.06	599.175	2704.27	12.801	105.073
48	19.953	2716	665.193	2796.27	13.7618	107.053
49	15.849	2797.23	734.962	2892.17	14.7215	109.018
50	12.589	2891.43	815.439	3004.21	15.7495	111.078
51	10	2989.52	902.123	3122.66	16.7918	113.318
52	7.9433	3096.27	999.582	3253.62	17.8919	115.623
53	6.3096	3213.97	1112.19	3400.97	19.0881	117.898
54	5.0119	3341.25	1240.86	3564.22	20.3737	120.313
55	3.9811	3478.71	1386.8	3744.95	21.7348	122.723
56	3.1623	3625.19	1557.31	3945.53	23.2475	125.273
57	2.5119	3782.43	1755.85	4170.11	24.9013	130.123
58	1.9953	3950.39	1987.59	4422.23	26.7087	132.648
59	1.5849	4142.62	2265.27	4721.52	28.6708	135.508
60	1.2589	4345.53	2591.29	5059.49	30.8082	138.418
61	1	4569.97	2986.19	5459.12	33.1621	143.378
62	0.79433	4821.78	3461.24	5935.46	35.6721	146.573
63	0.63096	5092.4	4016.93	6486	38.2667	150.119
64	0.50119	5394.68	4712.32	7163	41.1376	153.919
65	0.39811	5731.79	5542.96	7973.57	44.0405	158.109
66	0.31623	6150.66	6558.7	8991.51	46.8389	162.864
67	0.25119	6589.17	7757.76	10178.4	49.6566	168.304
68	0.19953	7134.3	9217.85	11656.2	52.2614	174.524
69	0.15849	7767.51	10996.5	13463.2	54.7641	181.794
70	0.12589	8599.6	13186.2	15742.6	56.8888	190.289
71	0.1	9490.69	15647.9	18301.1	58.7626	200.469

File: Z_p53_2.txt
Index	Frequency (Hz)	Z' (Ω)	-Z'' (Ω)	Z (Ω)	-Phase (°)	Time (s)
1	1000000	1456.23	574.309	1565.39	21.5232	346.503
2	794330	1506.77	517.061	1593.02	18.9401	347.973
3	630960	1580.12	467.575	1647.85	16.4841	349.378
4	501190	1649.69	420.177	1702.36	14.2894	350.903
5	398110	1701.74	362.249	1739.87	12.0171	352.543
6	316230	1758.6	321.316	1787.72	10.3543	353.918
7	251190	1802.29	281.573	1824.15	8.8796	355.323
8	199530	1818.32	233.02	1833.19	7.30275	356.753
9	158490	1854.02	206.022	1865.43	6.3408	358.178
10	125890	1880.54	180.931	1889.22	5.49566	359.458
11	100000	1902.42	158.581	1909.02	4.76501	360.783
12	79433	1919.91	139.493	1924.97	4.1556	362.043
13	63096	1934.49	122.976	1938.4	3.6374	363.503
14	50119	1946.95	109.165	1950.01	3.20919	364.903
15	39811	1957.05	97.5087	1959.48	2.85236	366.278
16	31623	1965.37	87.9433	1967.34	2.56207	367.568
17	25119	1974.15	80.9538	1975.81	2.3482	368.973
18	19953	1981.95	75.4878	1983.38	2.18121	370.298
19	15849	1988.88	71.4376	1990.17	2.05709	371.578
20	12589	1996.73	68.7727	1997.91	1.97264	372.859
21	10000	2003.5	67.4585	2004.64	1.92844	374.184
22	7943.3	2011.7	67.0733	2012.82	1.90963	375.624
23	6309.6	2018.86	67.7109	2020	1.92093	376.934
24	5011.9	2026.33	69.1759	2027.51	1.95523	378.224
25	3981.1	2034.8	71.4188	2036.06	2.01018	379.529
26	3162.3	2043.93	74.6541	2045.29	2.09179	380.859
27	2511.9	2052.63	78.7875	2054.14	2.19815	382.199
28	1995.3	2061.48	83.6193	2063.17	2.3228	383.604
29	1584.9	2071.69	89.7226	2073.64	2.47986	384.869
30	1258.9	2082.62	96.9901	2084.87	2.66641	386.164
31	1000	2094.29	105.483	2096.94	2.88337	387.529
32	794.33	2106.7	115.553	2109.86	3.13954	388.929
33	630.96	2120.29	127.286	2124.11	3.43549	390.274
34	501.19	2135.71	141.114	2140.37	3.78022	391.619
35	398.11	2150.98	156.955	2156.7	4.17342	392.864
36	316.23	2170.25	175.294	2177.31	4.61784	394.244
37	251.19	2191.43	196.436	2200.22	5.1222	395.604
38	199.53	2215.25	220.468	2226.2	5.68352	396.999
39	158.49	2241.76	247.48	2255.38	6.29968	398.304
40	125.89	2272.04	277.752	2288.96	6.96969	399.679
41	100	2307.46	311.569	2328.4	7.68994	401.014
42	79.433	2345.55	348.896	2371.36	8.46059	402.539
43	63.096	2391.1	389.815	2422.67	9.25933	404.004
44	50.119	2442.49	434.64	2480.86	10.0902	413.959
45	39.811	2499.02	483.491	2545.36	10.9499	423.134
46	31.623	2563.67	537.541	2619.42	11.842	424.859
47	25.119	2632.89	595.45	2699.38	12.7436	426.504
48	19.953	2712.26	660.342	2791.49	13.6833	428.31
49	15.849	2793.75	729.311	2887.37	14.6306	430.29
50	12.589	2884.6	808.786	2995.84	15.6625	432.245
51	10	2982.17	893.922	3113.27	16.6864	434.62
52	7.9433	3089.7	992.22	3245.11	17.8038	436.945
53	6.3096	3208.89	1103.72	3393.4	18.9811	439.255
54	5.0119	3330.01	1230.27	3550	20.2766	441.66
55	3.9811	3467.06	1376.77	3730.41	21.6581	444.115
56	3.1623	3610.99	1545.5	3927.83	23.1708	446.71
57	2.5119	3766.97	1741.72	4150.14	24.8142	453.905
58	1.9953	3936.86	1974.57	4404.3	26.6365	456.485
59	1.5849	4122.53	2248.42	4695.81	28.608	459.215
60	1.2589	4324.27	2577.36	5034.09	30.7959	462.1
61	1	4546.55	2968.94	5430.08	33.1449	467.28
62	0.79433	4796.55	3440.43	5902.83	35.6508	470.405
63	0.63096	5062.39	4007.56	6456.64	38.3663	473.85
64	0.50119	5369.23	4684.82	7125.74	41.1057	477.63
65	0.39811	5717.13	5521.49	7948.11	44.0027	481.831
66	0.31623	6105.55	6511.68	8926.35	46.8436	486.651
67	0.25119	6576.3	7765.87	10176.3	49.7414	492.026
68	0.19953	7115.78	9234.65	11658.2	52.3839	498.221
69	0.15849	7781.19	11012.6	13484.2	54.7561	505.476
70	0.12589	8524.55	13088.6	15619.9	56.924	513.991
71	0.1	9421.88	15770.7	18370.8	59.1447	524.166