Folder: Streamlit_cement_impedance/data/20200504

Note: README.md
# Software KDssZ version 1.0

This software tool works to analyze impedance measurements through a lumped circuital model.

## The repository contains:

- The Python module called [KDssZ.py](https://github.com/dantrica/Streamlit_cement_impedance/blob/c79735cefb679f8cb21de758db89e5011d7d15d4/KDssZ.py) contains the algorithms to optimize the electrical impedance measurements.
- The Python module called [appZ.py](https://github.com/dantrica/Streamlit_cement_impedance/blob/b421c1652a15b18d4e0220819822e362abc5bec6/appZ.py) contains the code to deploy the application on the Streamlit platform.
- All [data](https://github.com/dantrica/Streamlit_cement_impedance/tree/c79735cefb679f8cb21de758db89e5011d7d15d4/data) acquired during the experimental campaign is located in this repository Streamlit_cement_impedance/data/.
- The [Figures](https://github.com/dantrica/Streamlit_cement_impedance/tree/c79735cefb679f8cb21de758db89e5011d7d15d4/figures) folder contains an image describing the lumped circuit model.

## The left sidebar functionalities:

The user can upload the impedance measurements in format .txt. Moreover, this object contains the elements that will be presented in the left sidebar, such as i) the uploading file option, ii) the lumped circuit model, iii) Add and Remove buttons to move data in the Optimization zone, iv) Run and Reset buttons to start and clear the optimization.

## Project Description: 

$\texttt{KDssZ}$ has been developed to optimize experimental electrical impedance data to a lumped circuit model. This approach allows users to correlate the interactions among the components in the composite-electrodes, cement, nanoparticles, and pores with the measured impedance, which is analyzed across three frequency ranges: high, medium, and low. Although the software has been validated with impedance measurements from gold nanoparticles/cement-based composites, it can also be used to study the electrical properties of other cement-based composites. KDssZ is deployed on the Streamlit platform, and in line with the principles of open science, it allows researchers working on similar studies to use this tool to explore new research questions related to cement-based composites.

## Usage instructions:

The main functionalities of the software KDssZ are displayed in Figure~\ref{}, and enumerated according to the following list:

1. Push button \texttt{Browse Files} to upload \texttt{.txt} files with electrical impedance spectroscopy data.
2. Help menu explaining the format files to be received; help hints boxes to report whether a file was added previously or it is already in the optimization zone; and help tips on buttons.
3. Choosing the file data since Select tag.
4. Buttons $\texttt{Add data}$ and $\texttt{Remove}$, to add or remove data to the optimization zone.
5. Buttons $\texttt{Run}$ and $\texttt{Reset}$, to start the optimization, create the plots and return the DataFrame with the parameters.
6. Figures: wide mode and saving options.
7. T

File: Z_p33_1.txt
Index	Frequency (Hz)	Z' (Ω)	-Z'' (Ω)	Z (Ω)	-Phase (°)	Time (s)
1	1000000	2797.81	1903.27	3383.81	34.2264	30.0443
2	794330	3067.67	1728.05	3520.9	29.393	31.8594
3	630960	3389.88	1601.37	3749.09	25.286	33.2794
4	501190	3682.72	1495.71	3974.87	22.1042	34.8694
5	398110	3992.35	1320.36	4205.02	18.3002	36.3094
6	316230	4211.49	1203.87	4380.17	15.9528	37.6645
7	251190	4316.17	1042.92	4440.38	13.584	39.9245
8	199530	4489.57	944.074	4587.76	11.8752	41.2795
9	158490	4632.6	844.64	4708.97	10.333	42.5596
10	125890	4747.03	748.172	4805.63	8.95661	43.7946
11	100000	4842.77	663.108	4887.95	7.79688	45.1496
12	79433	4921.79	584.572	4956.39	6.77341	46.5746
13	63096	4985.04	514.474	5011.52	5.89227	47.8947
14	50119	5041.34	452.996	5061.65	5.1346	49.2547
15	39811	5089.06	398.124	5104.61	4.47321	50.6397
16	31623	5125.85	350.984	5137.86	3.91712	52.0047
17	25119	5161.47	313.679	5170.99	3.47777	53.4148
18	19953	5192.62	281.498	5200.24	3.10304	54.8148
19	15849	5222.29	253.729	5228.45	2.78157	56.1398
20	12589	5247.83	230.282	5252.88	2.5126	57.4498
21	10000	5270.29	211.013	5274.52	2.29279	58.7999
22	7943.3	5293.78	195.192	5297.38	2.11165	60.0899
23	6309.6	5316.4	181.596	5319.5	1.95633	61.5099
24	5011.9	5336.37	170.608	5339.1	1.83117	62.8299
25	3981.1	5354.54	161.602	5356.98	1.72868	64.165
26	3162.3	5371.97	154.178	5374.19	1.64396	65.495
27	2511.9	5392.37	147.892	5394.4	1.57101	66.875
28	1995.3	5408.26	142.873	5410.14	1.51327	68.135
29	1584.9	5429.46	139.655	5431.25	1.47342	69.355
30	1258.9	5447	136.384	5448.7	1.4343	70.6001
31	1000	5462.05	135.045	5463.72	1.4163	71.9001
32	794.33	5481.15	134.79	5482.81	1.40871	73.3501
33	630.96	5500.86	134.94	5502.51	1.40523	74.5851
34	501.19	5514.89	136.407	5516.57	1.41688	75.9302
35	398.11	5531.94	139.845	5533.7	1.44811	77.1902
36	316.23	5547.96	143.731	5549.82	1.48403	78.5502
37	251.19	5567.2	149.954	5569.22	1.5429	79.8702
38	199.53	5584.41	157.314	5586.62	1.61361	81.2303
39	158.49	5602.45	167.278	5604.95	1.71023	82.5453
40	125.89	5623.4	178.458	5626.23	1.81767	83.9403
41	100	5641.33	192.102	5644.6	1.95031	85.3153
42	79.433	5663.43	208.109	5667.26	2.10445	86.6654
43	63.096	5690.26	227.393	5694.8	2.28843	88.1154
44	50.119	5718	249.351	5723.44	2.49698	89.5554
45	39.811	5747.12	273.766	5753.64	2.72725	98.8056
46	31.623	5781.69	301.964	5789.57	2.9897	100.336
47	25.119	5816.68	334.065	5826.26	3.28701	101.991
48	19.953	5856.16	371.308	5867.92	3.62797	103.826
49	15.849	5903.17	411.154	5917.47	3.9842	105.841
50	12.589	5951.18	458.19	5968.79	4.4026	107.836
51	10	6003.93	509.864	6025.54	4.85401	110.181
52	7.9433	6060.47	571.412	6087.35	5.38621	112.426
53	6.3096	6122.87	638.494	6156.07	5.9533	114.811
54	5.0119	6190.41	719.022	6232.02	6.62528	117.206
55	3.9811	6262.95	809.802	6315.09	7.36749	119.566
56	3.1623	6338.76	919.897	6405.16	8.25726	122.056
57	2.5119	6428.45	1053.7	6514.24	9.30868	124.616
58	1.9953	6516.21	1208.29	6627.29	10.505	127.231
59	1.5849	6622.88	1396.02	6768.41	11.903	129.961
60	1.2589	6725.78	1619.78	6918.08	13.5408	132.781
61	1	6861.04	1892.4	7117.23	15.4199	137.836
62	0.79433	7014.78	2215.18	7356.23	17.5255	140.971
63	0.63096	7151.96	2607.03	7612.31	20.0278	144.521
64	0.50119	7336.28	3095.23	7962.5	22.8752	148.362
65	0.39811	7519.25	3684.65	8373.51	26.1062	152.697
66	0.31623	7787.69	4406.39	8947.87	29.5018	157.462
67	0.25119	8016.2	5257.36	9586.41	33.2585	162.787
68	0.19953	8343.72	6275.4	10440.2	36.9472	169.067
69	0.15849	8723.22	7559.01	11542.7	40.9102	176.342
70	0.12589	9259.62	9118.04	12995.4	44.5586	185.017
71	0.1	9746.21	10828.2	14568.4	48.0104	195.197

File: Z_p33_2.txt
Index	Frequency (Hz)	Z' (Ω)	-Z'' (Ω)	Z (Ω)	-Phase (°)	Time (s)
1	1000000	2815.83	1891.84	3392.34	33.8956	340.622
2	794330	3082.1	1708.75	3524.08	29.0045	341.997
3	630960	3392.12	1589.17	3745.92	25.1025	343.497
4	501190	3690.41	1465.5	3970.75	21.6585	345.032
5	398110	3982.8	1317.14	4194.94	18.2994	346.562
6	316230	4203.52	1200.48	4371.58	15.9388	348.087
7	251190	4311.59	1032.57	4433.51	13.468	350.467
8	199530	4483.36	934.134	4579.64	11.7695	351.757
9	158490	4627.29	837.023	4702.39	10.2533	353.127
10	125890	4739.57	743.313	4797.5	8.91317	354.462
11	100000	4836.93	658.613	4881.56	7.75391	355.852
12	79433	4914.85	580.974	4949.07	6.74152	357.187
13	63096	4979.57	511.762	5005.8	5.86781	358.562
14	50119	5036.23	450.893	5056.38	5.11603	360.047
15	39811	5081.86	396.411	5097.3	4.46032	361.577
16	31623	5119.65	349.455	5131.56	3.90481	362.897
17	25119	5154.85	312.386	5164.3	3.46791	364.182
18	19953	5186.09	280.209	5193.65	3.09274	365.457
19	15849	5213.49	252.495	5219.6	2.77273	366.827
20	12589	5240.24	229.964	5245.28	2.51277	368.152
21	10000	5263.92	210.356	5268.12	2.28843	369.407
22	7943.3	5286.36	194.369	5289.93	2.1057	370.682
23	6309.6	5308.91	181.218	5312	1.95502	371.962
24	5011.9	5327.16	170.293	5329.88	1.83095	373.302
25	3981.1	5349.53	161.271	5351.96	1.72676	374.548
26	3162.3	5368.84	153.842	5371.04	1.64134	375.828
27	2511.9	5383.84	147.713	5385.87	1.57159	377.088
28	1995.3	5403.25	143.185	5405.15	1.51797	378.453
29	1584.9	5424.91	139.746	5426.71	1.47561	379.758
30	1258.9	5439.73	136.42	5441.44	1.43659	381.073
31	1000	5456.77	135.118	5458.44	1.41844	382.543
32	794.33	5476.01	134.234	5477.65	1.40421	383.893
33	630.96	5491.09	135.096	5492.76	1.40935	385.243
34	501.19	5509.12	136.578	5510.81	1.42014	387.358
35	398.11	5526.54	139.395	5528.3	1.44486	388.538
36	316.23	5544.86	144.056	5546.73	1.48821	389.953
37	251.19	5562.21	150.202	5564.23	1.54684	391.383
38	199.53	5579.26	157.559	5581.48	1.61761	392.648
39	158.49	5596.75	167.205	5599.24	1.71122	394.058
40	125.89	5618.22	178.572	5621.06	1.8205	395.433
41	100	5636.51	191.884	5639.77	1.94977	396.773
42	79.433	5660.59	208.59	5664.43	2.11037	398.123
43	63.096	5685.72	227.464	5690.27	2.29097	399.633
44	50.119	5713.47	249.17	5718.9	2.49715	400.973
45	39.811	5742.13	273.971	5748.66	2.73165	410.108
46	31.623	5778.88	302.4	5786.79	2.99547	411.988
47	25.119	5815.69	334.147	5825.28	3.28837	413.558
48	19.953	5854.78	371.623	5866.57	3.63188	415.473
49	15.849	5898.47	412.218	5912.85	3.99765	418.203
50	12.589	5949.11	457.191	5966.65	4.39456	420.123
51	10	6000.46	510.602	6022.15	4.8638	422.333
52	7.9433	6058.71	569.383	6085.41	5.36875	424.648
53	6.3096	6119.42	637.908	6152.58	5.9512	427.028
54	5.0119	6187.52	719.734	6229.24	6.63484	429.379
55	3.9811	6260.82	811.331	6313.17	7.38373	431.774
56	3.1623	6338.9	920.401	6405.37	8.26155	434.214
57	2.5119	6423.11	1054.06	6509.03	9.31941	436.769
58	1.9953	6517.08	1210.93	6628.63	10.526	439.464
59	1.5849	6620.25	1391.31	6764.87	11.8686	442.294
60	1.2589	6724.19	1619.9	6916.56	13.5448	445.199
61	1	6856.81	1894.1	7113.61	15.4421	450.149
62	0.79433	7010.42	2215.52	7352.18	17.5382	453.309
63	0.63096	7152.35	2615.45	7615.55	20.0863	456.774
64	0.50119	7337.01	3097.36	7964	22.8873	460.694
65	0.39811	7522.14	3696.32	8381.26	26.1691	465.004
66	0.31623	7784.32	4412.63	8948.01	29.5473	469.864
67	0.25119	8015.07	5261	9587.46	33.2804	475.369
68	0.19953	8346.19	6269.75	10438.8	36.9143	481.61
69	0.15849	8716.87	7563.54	11540.8	40.9479	488.88
70	0.12589	9242.22	9153.87	13008.2	44.7248	497.415
71	0.1	9763.71	10859	14603	48.0401	507.64

File: Z_p33_3.txt
Index	Frequency (Hz)	Z' (Ω)	-Z'' (Ω)	Z (Ω)	-Phase (°)	Time (s)
1	1000000	2829.68	1878.43	3396.41	33.5775	601.646
2	794330	3086.2	1702.73	3524.76	28.8866	603.707
3	630960	3388.45	1574.88	3736.56	24.928	605.743
4	501190	3688.5	1454.97	3965.1	21.5273	607.974
5	398110	3980.94	1315.49	4192.66	18.2861	610.035
6	316230	4198.66	1200.64	4366.96	15.9583	612.111
7	251190	4309.6	1031.16	4431.25	13.4562	615.668
8	199530	4487.02	936.065	4583.62	11.7838	617.579
9	158490	4625.71	837.969	4701	10.268	619.625
10	125890	4740.52	743.468	4798.47	8.91323	621.586
11	100000	4836.18	657.561	4880.67	7.74286	623.632
12	79433	4914.43	579.972	4948.54	6.73058	625.533
13	63096	4980.11	510.983	5006.26	5.85832	627.599
14	50119	5035.96	450.167	5056.04	5.10812	629.735
15	39811	5083.34	396.046	5098.74	4.45495	631.651
16	31623	5119.94	349.081	5131.83	3.90043	633.667
17	25119	5154.85	311.849	5164.28	3.46196	635.578
18	19953	5185.51	279.568	5193.04	3.08602	637.469
19	15849	5213.43	252.697	5219.55	2.77497	639.4
20	12589	5242.25	229.427	5247.27	2.50595	641.306
21	10000	5262.41	210.044	5266.6	2.28569	643.262
22	7943.3	5287.65	194.395	5291.22	2.10547	645.318
23	6309.6	5308.19	181.445	5311.29	1.95772	647.454
24	5011.9	5328.96	170.146	5331.68	1.82875	649.5
25	3981.1	5348.73	161.161	5351.15	1.72584	651.511
26	3162.3	5366.75	153.651	5368.95	1.63994	653.407
27	2511.9	5386.34	147.922	5388.38	1.57308	655.504
28	1995.3	5405.3	142.819	5407.19	1.51352	657.41
29	1584.9	5422.77	139.261	5424.56	1.47108	659.306
30	1258.9	5439.64	136.152	5441.34	1.4338	661.232
31	1000	5459.08	134.911	5460.75	1.41567	663.283
32	794.33	5473.85	134.467	5475.5	1.40721	665.359
33	630.96	5492.53	134.706	5494.18	1.40492	667.25
34	501.19	5510.02	136.8	5511.71	1.42222	669.276
35	398.11	5527.02	139.638	5528.78	1.44725	671.262
36	316.23	5544	143.959	5545.87	1.48744	673.348
37	251.19	5562.44	149.626	5564.45	1.54085	675.359
38	199.53	5579.97	157.332	5582.19	1.61507	677.295
39	158.49	5598.16	166.853	5600.65	1.70719	679.226
40	125.89	5613.92	178.455	5616.75	1.8207	681.262
41	100	5637.46	192.067	5640.73	1.9513	683.358
42	79.433	5661.71	208.603	5665.55	2.11008	685.529
43	63.096	5685.28	228.185	5689.86	2.29839	687.75
44	50.119	5714.66	250.292	5720.14	2.50786	689.836
45	39.811	5744.18	273.579	5750.69	2.72677	699.687
46	31.623	5775.88	301.673	5783.75	2.98983	701.928
47	25.119	5816.98	334.138	5826.57	3.28756	704.089
48	19.953	5857.39	371.313	5869.15	3.62725	706.615
49	15.849	5899.73	411.739	5914.08	3.99217	709.167
50	12.589	5947.36	458.582	5965.01	4.40917	711.743
51	10	6000.88	511.156	6022.61	4.86871	714.634
52	7.9433	6058.36	571.134	6085.22	5.38548	717.715
53	6.3096	6125.42	640.9	6158.86	5.97309	720.716
54	5.0119	6189.56	720.588	6231.36	6.64047	723.862
55	3.9811	6261.71	813.287	6314.3	7.4003	726.978
56	3.1623	6340.2	921.732	6406.85	8.27166	730.129
57	2.5119	6427.89	1056.82	6514.19	9.33654	733.36
58	1.9953	6515.31	1211.1	6626.91	10.5303	736.726
59	1.5849	6625.52	1398.6	6771.53	11.9197	740.197
60	1.2589	6734.29	1620.78	6926.59	13.5323	743.738
61	1	6861.31	1896.36	7118.55	15.45	750.05
62	0.79433	7007.36	2226.43	7352.56	17.6265	753.811
63	0.63096	7167.88	2598.51	7624.35	19.9267	757.987
64	0.50119	7321.06	3095.53	7948.6	22.9198	762.549
65	0.39811	7522.18	3697.01	8381.59	26.1733	767.54
66	0.31623	7763.36	4373.46	8910.49	29.3946	773.081
67	0.25119	8026.08	5246.52	9588.74	33.172	779.282
68	0.19953	8428.05	6300.77	10522.9	36.7816	786.218
69	0.15849	8804.44	7593.94	11627	40.7782	794.159
70	0.12589	9280.54	9133.5	13021.1	44.5425	803.615
71	0.1	9841.28	10882.5	14672.4	47.8764	814.646

File: Z_p34_1.txt
Index	Frequency (Hz)	Z' (Ω)	-Z'' (Ω)	Z (Ω)	-Phase (°)	Time (s)
1	1000000	3001.76	2079.89	3651.92	34.7178	140.225
2	794330	3293.99	1873.14	3789.33	29.6249	141.635
3	630960	3639.41	1733.25	4031.07	25.4659	143.19
4	501190	3947.29	1632.37	4271.5	22.4672	144.74
5	398110	4299.32	1480.03	4546.94	18.9959	146.11
6	316230	4547.57	1352.39	4744.4	16.5618	147.516
7	251190	4677.5	1161.67	4819.6	13.9473	149.766
8	199530	4875.26	1056.83	4988.5	12.231	151.181
9	158490	5035.72	948.607	5124.29	10.6681	152.611
10	125890	5166.82	845.324	5235.51	9.29164	153.976
11	100000	5275.15	749.003	5328.06	8.08124	155.346
12	79433	5368.33	662.745	5409.08	7.03782	156.606
13	63096	5440.9	584.158	5472.16	6.12804	158.056
14	50119	5506.82	515.175	5530.87	5.34458	159.466
15	39811	5563.61	454.021	5582.1	4.66531	160.846
16	31623	5608.86	399.503	5623.07	4.07413	162.126
17	25119	5646.59	356.563	5657.83	3.61324	163.396
18	19953	5682.24	319.869	5691.24	3.22193	164.826
19	15849	5715.91	288.004	5723.16	2.88448	166.181
20	12589	5743.83	260.993	5749.76	2.60167	167.456
21	10000	5769.52	238.058	5774.43	2.36276	168.706
22	7943.3	5798.99	219.091	5803.13	2.16365	170.041
23	6309.6	5821.72	203.658	5825.28	2.00353	171.531
24	5011.9	5846.84	189.778	5849.91	1.85907	172.826
25	3981.1	5869.27	178.213	5871.98	1.73918	174.076
26	3162.3	5891.14	168.656	5893.55	1.63986	175.331
27	2511.9	5909.15	160.767	5911.34	1.55843	176.736
28	1995.3	5929.03	154.379	5931.04	1.49152	178.121
29	1584.9	5948.93	149.347	5950.81	1.4381	179.391
30	1258.9	5967.81	145.25	5969.58	1.39424	180.716
31	1000	5984.98	141.526	5986.65	1.35462	181.991
32	794.33	6006.55	139.841	6008.18	1.33368	183.361
33	630.96	6023.58	138.54	6025.18	1.31754	184.661
34	501.19	6041.65	139.066	6043.25	1.3186	186.196
35	398.11	6057.9	140.742	6059.53	1.33091	187.411
36	316.23	6076.58	143.638	6078.27	1.3541	188.696
37	251.19	6093.14	148.198	6094.94	1.39328	190.091
38	199.53	6109.23	155.145	6111.2	1.45473	191.471
39	158.49	6129.24	163.047	6131.41	1.52379	192.886
40	125.89	6144.49	172.979	6146.92	1.61256	194.286
41	100	6163.82	185.579	6166.61	1.72453	195.581
42	79.433	6191.21	201.304	6194.48	1.86229	196.996
43	63.096	6213.12	219.28	6216.99	2.0213	198.581
44	50.119	6242.86	239.665	6247.46	2.19852	200.016
45	39.811	6271.3	263.47	6276.83	2.4057	209.332
46	31.623	6300.42	291.741	6307.17	2.65119	211.092
47	25.119	6337.92	321.901	6346.09	2.90754	212.612
48	19.953	6378.84	359.443	6388.95	3.22517	214.482
49	15.849	6420.84	400.611	6433.32	3.57019	216.632
50	12.589	6467.43	444.326	6482.68	3.93016	218.712
51	10	6515.73	496.189	6534.6	4.35481	220.952
52	7.9433	6576.73	554.547	6600.07	4.81975	223.312
53	6.3096	6635.44	620.649	6664.4	5.34364	225.752
54	5.0119	6698.03	697.855	6734.29	5.94807	228.147
55	3.9811	6772.63	790.288	6818.58	6.65566	230.492
56	3.1623	6849.2	894.819	6907.41	7.44329	233.092
57	2.5119	6927.24	1023.93	7002.5	8.4081	235.727
58	1.9953	7011.9	1177.58	7110.09	9.53331	238.392
59	1.5849	7112.29	1357.05	7240.59	10.8024	241.317
60	1.2589	7213.98	1585.18	7386.09	12.393	244.202
61	1	7340.14	1854.89	7570.88	14.182	249.377
62	0.79433	7493.68	2173.86	7802.63	16.177	252.437
63	0.63096	7622.74	2565.22	8042.79	18.5992	255.988
64	0.50119	7800.18	3045.13	8373.51	21.3253	259.828
65	0.39811	7989.4	3647.57	8782.67	24.5391	264.008
66	0.31623	8237.49	4338.7	9310.24	27.7759	268.873
67	0.25119	8448.44	5210.76	9926.14	31.6651	274.373
68	0.19953	8762.18	6224.13	10747.8	35.3877	280.653
69	0.15849	9131.45	7490.12	11810.4	39.3605	288.073
70	0.12589	9629.78	9077.82	13234	43.31	296.723
71	0.1	10163.5	10778.3	14814.5	46.6818	306.983

File: Z_p34_2.txt
Index	Frequency (Hz)	Z' (Ω)	-Z'' (Ω)	Z (Ω)	-Phase (°)	Time (s)
1	1000000	3015.27	2086.22	3666.63	34.6788	453.051
2	794330	3307.18	1895.22	3811.73	29.8154	454.386
3	630960	3651.25	1745.75	4047.13	25.5536	455.756
4	501190	3975.79	1634.62	4298.71	22.3497	457.221
5	398110	4319.4	1493.41	4570.28	19.0725	458.771
6	316230	4571.84	1365.78	4771.49	16.6328	460.246
7	251190	4707.87	1174.16	4852.08	14.0041	462.561
8	199530	4907.28	1068.68	5022.3	12.2858	463.971
9	158490	5068.82	959.688	5158.87	10.721	465.396
10	125890	5201.41	853.372	5270.95	9.31726	466.796
11	100000	5311.07	757.881	5364.87	8.12119	468.286
12	79433	5404.72	670.471	5446.15	7.07158	469.681
13	63096	5481.46	591.753	5513.3	6.16153	471.041
14	50119	5545.16	521.225	5569.61	5.36981	472.506
15	39811	5604.19	459.613	5623.01	4.68847	473.981
16	31623	5648.71	404.261	5663.15	4.09351	475.296
17	25119	5688.5	361.267	5699.96	3.63387	476.571
18	19953	5726.8	323.617	5735.94	3.2343	477.851
19	15849	5756.11	290.866	5763.46	2.89279	479.196
20	12589	5786.86	263.987	5792.88	2.61193	480.571
21	10000	5813.65	240.787	5818.63	2.37169	481.972
22	7943.3	5841.36	220.974	5845.53	2.16642	483.362
23	6309.6	5866.09	205.232	5869.68	2.00375	484.747
24	5011.9	5891.16	190.994	5894.26	1.85691	486.197
25	3981.1	5912.71	179.423	5915.43	1.73813	487.567
26	3162.3	5933.29	170.512	5935.74	1.64612	488.827
27	2511.9	5952.99	162.144	5955.2	1.56021	490.087
28	1995.3	5973.18	155.104	5975.19	1.48745	491.517
29	1584.9	5991.27	150.001	5993.15	1.43419	492.697
30	1258.9	6010.88	144.662	6012.62	1.37865	493.957
31	1000	6032.25	142.752	6033.94	1.35564	495.252
32	794.33	6049.81	140.321	6051.44	1.3287	496.787
33	630.96	6066.89	138.963	6068.48	1.31213	498.152
34	501.19	6081.61	139.262	6083.2	1.31178	500.237
35	398.11	6103.13	140.876	6104.76	1.3223	501.407
36	316.23	6121.01	143.376	6122.69	1.34183	502.727
37	251.19	6136.09	147.99	6137.87	1.38159	504.212
38	199.53	6155.49	154.619	6157.43	1.43891	505.532
39	158.49	6172.38	162.506	6174.52	1.50813	506.837
40	125.89	6191.86	172.164	6194.25	1.5927	508.217
41	100	6209.3	185.022	6212.06	1.70676	509.737
42	79.433	6234.16	200.013	6237.37	1.83761	511.062
43	63.096	6258.84	217.783	6262.63	1.99286	512.487
44	50.119	6286.02	237.809	6290.51	2.16655	513.927
45	39.811	6314.54	260.905	6319.93	2.36601	523.252
46	31.623	6346.46	287.322	6352.96	2.59217	525.012
47	25.119	6383.77	318.778	6391.73	2.85873	526.722
48	19.953	6420.81	355.81	6430.66	3.17181	528.737
49	15.849	6463.67	394.222	6475.68	3.49017	530.902
50	12.589	6510.71	439.571	6525.54	3.86246	532.967
51	10	6559.88	490.475	6578.19	4.27599	535.188
52	7.9433	6615.96	546.78	6638.52	4.7245	537.513
53	6.3096	6674.14	614.648	6702.39	5.26175	540.038
54	5.0119	6739.8	690.705	6775.1	5.85134	542.518
55	3.9811	6811.21	780.932	6855.83	6.54063	544.968
56	3.1623	6884.2	888.291	6941.27	7.35244	547.478
57	2.5119	6964.14	1014.02	7037.58	8.28438	550.248
58	1.9953	7047.66	1168.65	7143.9	9.41519	552.888
59	1.5849	7148.09	1348.37	7274.15	10.6824	555.533
60	1.2589	7250.35	1575.59	7419.58	12.2605	560.098
61	1	7374.08	1843.5	7601.02	14.0361	565.258
62	0.79433	7511	2159.79	7815.36	16.0426	568.553
63	0.63096	7657.86	2556.61	8073.36	18.4618	572.268
64	0.50119	7825.35	3037.59	8394.23	21.2148	576.183
65	0.39811	7988.83	3619.92	8770.71	24.3764	580.573
66	0.31623	8237.27	4349.35	9315.01	27.8344	585.418
67	0.25119	8472.15	5175.76	9928.03	31.4214	590.789
68	0.19953	8798.25	6184.42	10754.4	35.1039	597.019
69	0.15849	9139.97	7476.43	11808.3	39.2829	604.189
70	0.12589	9657.56	9066.78	13246.7	43.1928	612.654
71	0.1	10147.7	10780.3	14805.1	46.7314	622.939

File: Z_p34_3.txt
Index	Frequency (Hz)	Z' (Ω)	-Z'' (Ω)	Z (Ω)	-Phase (°)	Time (s)
1	1000000	3025.98	2095.32	3680.62	34.7004	720.362
2	794330	3320.31	1905.23	3828.1	29.8476	722.583
3	630960	3675.83	1756.87	4074.11	25.5456	725.034
4	501190	3992.33	1647.34	4318.85	22.4223	727.305
5	398110	4343.34	1511.48	4598.82	19.1878	729.551
6	316230	4590.09	1378.45	4792.61	16.7156	731.902
7	251190	4730.41	1185.63	4876.73	14.0708	735.644
8	199530	4932.69	1077.85	5049.08	12.3261	737.78
9	158490	5095.48	969.772	5186.95	10.7757	739.991
10	125890	5234.01	864.159	5304.87	9.37522	742.272
11	100000	5343.03	765.682	5397.61	8.15523	744.498
12	79433	5436.56	677.077	5478.56	7.09915	746.474
13	63096	5514	597.545	5546.28	6.18494	748.87
14	50119	5580.28	526.978	5605.11	5.39478	750.961
15	39811	5635.74	463.959	5654.81	4.70622	753.017
16	31623	5683.5	408.254	5698.15	4.10858	755.233
17	25119	5724.3	364.304	5735.89	3.64149	757.519
18	19953	5761.67	326.39	5770.91	3.24225	759.565
19	15849	5796.21	293.646	5803.64	2.90022	761.697
20	12589	5824.66	266.105	5830.73	2.61579	764.123
21	10000	5852.12	242.149	5857.12	2.36943	766.159
22	7943.3	5879.95	223.191	5884.18	2.17379	768.14
23	6309.6	5903.28	206.462	5906.89	2.00305	770.301
24	5011.9	5926.08	192.452	5929.2	1.86006	772.307
25	3981.1	5948.91	180.672	5951.65	1.73957	774.513
26	3162.3	5973.59	171.218	5976.04	1.64179	776.624
27	2511.9	5993.93	163.158	5996.15	1.55923	778.615
28	1995.3	6015.71	156.54	6017.75	1.49061	780.676
29	1584.9	6032.33	150.912	6034.22	1.43308	782.667
30	1258.9	6053.6	146.527	6055.38	1.38657	784.703
31	1000	6069.46	142.85	6071.14	1.34826	787.044
32	794.33	6089.34	140.762	6090.97	1.32422	789.375
33	630.96	6107.61	139.593	6109.21	1.3093	791.491
34	501.19	6125.12	139.139	6126.7	1.30131	793.547
35	398.11	6142.35	140.866	6143.96	1.31377	795.593
36	316.23	6160.15	143.8	6161.83	1.33724	797.684
37	251.19	6179.47	148.466	6181.25	1.37631	799.715
38	199.53	6197.88	154.661	6199.81	1.42945	801.936
39	158.49	6213.4	162.657	6215.52	1.49957	804.067
40	125.89	6234.23	172.669	6236.62	1.58651	806.138
41	100	6251.88	184.319	6254.59	1.68872	808.309
42	79.433	6273.85	199.392	6277.02	1.82033	810.425
43	63.096	6297.39	217.404	6301.14	1.97723	812.746
44	50.119	6324.14	237.879	6328.62	2.15413	815.283
45	39.811	6356.42	260.766	6361.76	2.34918	825.104
46	31.623	6384.94	287.312	6391.41	2.57648	827.71
47	25.119	6419.07	317.907	6426.93	2.83528	831.892
48	19.953	6459.06	355.484	6468.84	3.15018	834.348
49	15.849	6506.53	395.454	6518.53	3.47805	836.989
50	12.589	6550.43	439.356	6565.15	3.83724	840.15
51	10	6602.55	490.753	6620.76	4.25085	843.291
52	7.9433	6656.77	547.292	6679.23	4.70005	846.432
53	6.3096	6718.09	614.075	6746.09	5.22267	849.553
54	5.0119	6783.02	689.801	6818.01	5.80674	852.584
55	3.9811	6849.91	779.456	6894.11	6.49181	855.745
56	3.1623	6926.97	886.595	6983.47	7.29374	858.946
57	2.5119	7005.72	1011.84	7078.41	8.21845	862.187
58	1.9953	7085.55	1163.34	7180.42	9.32393	865.693
59	1.5849	7188.53	1347.49	7313.74	10.6169	869.055
60	1.2589	7281.5	1569.71	7448.77	12.1653	873.071
61	1	7415.38	1834.74	7638.99	13.8972	879.643
62	0.79433	7551.88	2163.5	7855.67	15.9862	883.704
63	0.63096	7697.03	2525.66	8100.82	18.1664	887.865
64	0.50119	7843.41	2999.88	8397.52	20.9304	892.626
65	0.39811	8025.08	3595.96	8793.91	24.1367	897.577
66	0.31623	8271.55	4280.14	9313.34	27.3595	903.018
67	0.25119	8518.69	5133.65	9945.97	31.0746	909.249
68	0.19953	8863.86	6240.45	10840.3	35.1468	916.475
69	0.15849	9189.61	7475.02	11845.9	39.1256	924.407
70	0.12589	9633.84	9021.78	13198.6	43.1209	933.758
71	0.1	10255	10843.8	14924.9	46.5986	944.684