Folder: Streamlit_cement_impedance/data/20200619 (part 5)

File: Z_p27_1.txt
Index	Frequency (Hz)	Z' (Ω)	-Z'' (Ω)	Z (Ω)	-Phase (°)	Time (s)
1	1000000	3385.43	5922.84	6822.11	60.2482	84.7003
2	794330	4720.63	6236.53	7821.68	52.8767	86.0654
3	630960	6121.67	6764.62	9123.32	47.8564	87.4954
4	501190	7554.22	7270.39	10484.5	43.9031	88.9654
5	398110	9390.78	8161.62	12441.8	40.9942	93.9905
6	316230	10973	8416.26	13829	37.488	95.3555
7	251190	12430.3	8365.67	14983.3	33.9407	100.376
8	199530	14012.7	8414.27	16344.9	30.9838	101.661
9	158490	15584.7	8337.59	17674.8	28.1461	102.936
10	125890	17053.3	8108.2	18882.8	25.4293	104.246
11	100000	18428.1	7770.92	19999.6	22.8646	105.651
12	79433	19688.6	7348.87	21015.4	20.4683	106.916
13	63096	20839.5	6881.36	21946.2	18.2736	108.266
14	50119	21895	6373.04	22803.6	16.2289	109.666
15	39811	22836.8	5871.24	23579.4	14.4182	110.956
16	31623	23611.6	5328.28	24205.3	12.7166	112.231
17	25119	24281.5	4844.74	24760.1	11.2837	113.521
18	19953	24862	4434.44	25254.3	10.1131	114.801
19	15849	25431	4081.26	25756.4	9.11727	116.121
20	12589	25923.1	3706.43	26186.8	8.13687	117.436
21	10000	26359.2	3392.38	26576.6	7.33355	119.606
22	7943.3	26762.5	3142.32	26946.4	6.69671	120.831
23	6309.6	27135.3	2929.12	27292.9	6.16094	122.141
24	5011.9	27490	2749.52	27627.1	5.71167	123.476
25	3981.1	27804	2599.22	27925.3	5.34069	124.801
26	3162.3	28130.8	2483.65	28240.2	5.04553	126.071
27	2511.9	28423.2	2383.31	28523	4.79309	127.381
28	1995.3	28709	2314.41	28802.1	4.60901	128.651
29	1584.9	29004	2258.85	29091.8	4.45324	129.826
30	1258.9	29304.9	2215.1	29388.5	4.32267	131.106
31	1000	29612.5	2195.44	29693.7	4.2401	132.386
32	794.33	29918.2	2179.83	29997.5	4.16719	133.756
33	630.96	30199.6	2173.09	30277.6	4.11578	135.041
34	501.19	30515	2171.91	30592.2	4.07117	136.401
35	398.11	30819.8	2177.89	30896.7	4.04211	137.726
36	316.23	31136	2190.32	31213	4.02395	139.006
37	251.19	31443.6	2199.46	31520.4	4.00128	140.331
38	199.53	31774.9	2217.64	31852.1	3.99232	141.681
39	158.49	32080.7	2231.34	32158.2	3.97874	143.011
40	125.89	32417.4	2249.55	32495.3	3.96958	144.396
41	100	32753.2	2267.11	32831.5	3.95958	145.706
42	79.433	33079.5	2277.82	33157.8	3.93911	147.122
43	63.096	33419.7	2291.64	33498.2	3.92271	148.597
44	50.119	33762	2295.19	33839.9	3.88906	150.037
45	39.811	34110.5	2308.9	34188.5	3.87238	159.182
46	31.623	34455.9	2315.21	34533.6	3.84412	160.777
47	25.119	34779.5	2314.31	34856.4	3.807	162.487
48	19.953	35127.2	2325.5	35204.1	3.78758	164.412
49	15.849	35468.8	2321.5	35544.7	3.74477	166.312
50	12.589	35801.7	2314.41	35876.5	3.69875	168.317
51	10	36161	2314.59	36235	3.66239	170.597
52	7.9433	36477.9	2309.15	36550.9	3.62215	172.907
53	6.3096	36796	2299.76	36867.8	3.57636	175.182
54	5.0119	37117.2	2300.16	37188.4	3.54611	177.612
55	3.9811	37413	2314.57	37484.6	3.54011	180.027
56	3.1623	37720.5	2336.84	37792.8	3.54503	182.517
57	2.5119	37985.6	2408.11	38061.8	3.62744	185.092
58	1.9953	38264.9	2479.32	38345.2	3.70722	187.727
59	1.5849	38535.6	2621.84	38624.6	3.89224	190.422
60	1.2589	38803.8	2779.76	38903.2	4.09746	193.312
61	1	39043.5	2983.41	39157.3	4.36962	198.382
62	0.79433	39317.5	3255.91	39452.1	4.7339	201.478
63	0.63096	39555.4	3613.29	39720.1	5.21934	204.908
64	0.50119	39798.5	4081.44	40007.2	5.85537	208.708
65	0.39811	40058.8	4668.63	40329.9	6.64753	212.893
66	0.31623	40350.3	5531.51	40727.7	7.80586	217.653
67	0.25119	40783.3	6379.14	41279.2	8.88992	223.138
68	0.19953	41164.2	7546.82	41850.3	10.3889	229.403
69	0.15849	41576	8948.03	42528	12.146	236.713
70	0.12589	41891.7	10915	43290.4	14.6038	245.293
71	0.1	42908	13055.1	44850.1	16.9228	255.479

File: Z_p27_2.txt
Index	Frequency (Hz)	Z' (Ω)	-Z'' (Ω)	Z (Ω)	-Phase (°)	Time (s)
1	1000000	3339.78	6036.72	6898.99	61.0467	401.097
2	794330	4658.98	6282.21	7821.27	53.4389	402.532
3	630960	6103.11	6759.13	9106.8	47.9197	403.947
4	501190	7494.08	7342.46	10491.6	44.4145	405.417
5	398110	9447.21	8271.89	12556.8	41.2051	410.597
6	316230	10914.5	8540.4	13858.7	38.0425	411.972
7	251190	12482.1	8485.34	15093.2	34.2078	416.127
8	199530	14085.4	8566.93	16486	31.3086	417.457
9	158490	15632.7	8467.9	17778.8	28.4434	418.867
10	125890	17137.5	8222.85	19008.2	25.6324	420.157
11	100000	18547.8	7897.84	20159.2	23.0649	421.462
12	79433	19870.5	7455.2	21223	20.5656	422.857
13	63096	21012.8	7023.7	22155.6	18.4826	424.242
14	50119	22093.1	6496.73	23028.5	16.3866	425.682
15	39811	23052.1	5943.13	23805.9	14.4568	426.992
16	31623	23833.6	5424.84	24443.2	12.8228	428.253
17	25119	24539.3	4978.73	25039.3	11.4689	429.598
18	19953	25160	4537.91	25566	10.2241	430.898
19	15849	25728.7	4131.47	26058.3	9.12258	432.193
20	12589	26204.1	3805.21	26478.9	8.26241	433.503
21	10000	26674.1	3463.79	26898.1	7.39879	435.663
22	7943.3	27090.7	3208.18	27280	6.75372	436.893
23	6309.6	27483.3	2990.19	27645.5	6.20935	438.178
24	5011.9	27824.3	2804.33	27965.2	5.75525	439.473
25	3981.1	28153.3	2650.17	28277.8	5.37759	440.798
26	3162.3	28475.6	2526.98	28587.6	5.07124	442.078
27	2511.9	28773.9	2429.31	28876.3	4.82589	443.348
28	1995.3	29080	2351.82	29174.9	4.6237	444.628
29	1584.9	29377.6	2293.81	29467	4.46461	445.993
30	1258.9	29686.1	2253.72	29771.6	4.34147	447.218
31	1000	29988.7	2226.11	30071.2	4.24538	448.508
32	794.33	30290	2208.41	30370.4	4.16999	449.913
33	630.96	30585.9	2199.47	30664.9	4.11313	451.203
34	501.19	30901	2203.08	30979.4	4.078	452.598
35	398.11	31205.3	2205.81	31283.2	4.04335	453.838
36	316.23	31526.8	2218.59	31604.8	4.02535	455.108
37	251.19	31841.3	2228.32	31919.2	4.00316	456.498
38	199.53	32174.7	2244.02	32252.9	3.98962	457.818
39	158.49	32507.2	2261.76	32585.8	3.98008	459.213
40	125.89	32839.8	2274.97	32918.5	3.96281	460.558
41	100	33164.1	2289.58	33243.1	3.94932	461.883
42	79.433	33490.7	2304.06	33569.9	3.93557	463.498
43	63.096	33842	2324.9	33921.7	3.92998	464.983
44	50.119	34175.5	2333.65	34255.1	3.90634	466.483
45	39.811	34517.9	2339.47	34597.1	3.87733	475.673
46	31.623	34884.5	2345.82	34963.3	3.84708	477.353
47	25.119	35229.2	2350.35	35307.6	3.81689	478.903
48	19.953	35580.3	2361.47	35658.5	3.79717	480.758
49	15.849	35923.3	2367.12	36001.2	3.76999	482.679
50	12.589	36277	2359.73	36353.6	3.72171	484.709
51	10	36609.5	2349.87	36684.8	3.67263	487.039
52	7.9433	36952.2	2349.72	37026.9	3.63842	489.294
53	6.3096	37288.6	2346.26	37362.3	3.6004	491.699
54	5.0119	37591.7	2354.8	37665.4	3.58442	494.154
55	3.9811	37888.7	2381.08	37963.5	3.59597	496.519
56	3.1623	38181.7	2429.63	38258.9	3.64101	499.064
57	2.5119	38489.9	2476.47	38569.5	3.68138	501.614
58	1.9953	38753.1	2583.35	38839.1	3.8138	504.264
59	1.5849	39048.8	2718.99	39143.4	3.98311	507.224
60	1.2589	39335	2860.43	39438.9	4.15922	510.094
61	1	39561.7	3122.91	39684.8	4.51343	515.164
62	0.79433	39849.8	3425.29	39996.7	4.91279	518.254
63	0.63096	40109.1	3774.39	40286.3	5.37588	521.714
64	0.50119	40384.5	4319.99	40614.9	6.10581	525.464
65	0.39811	40637.7	4978.99	40941.6	6.98515	529.669
66	0.31623	41032.9	5829.46	41444.9	8.08579	534.429
67	0.25119	41274.8	6791.2	41829.7	9.34352	539.87
68	0.19953	41676.6	8016.4	42440.6	10.8877	546.035
69	0.15849	42123.8	9662.94	43217.9	12.9198	553.315
70	0.12589	42922.7	11535.5	44445.8	15.0428	561.795
71	0.1	43230.4	13657.1	45336.3	17.5321	572.005

File: Z_p27_3.txt
Index	Frequency (Hz)	Z' (Ω)	-Z'' (Ω)	Z (Ω)	-Phase (°)	Time (s)
1	1000000	3427.27	6040.44	6945.01	60.43	719.434
2	794330	4672.85	6229.84	7787.58	53.1273	721.495
3	630960	6102.05	6716.87	9074.77	47.7459	723.566
4	501190	7568.73	7326.51	10533.9	44.0684	725.687
5	398110	9438.1	8154.2	12472.7	40.8259	734.132
6	316230	11015.9	8523.45	13928.3	37.7307	736.068
7	251190	12433.3	8440.47	15027.6	34.171	744.468
8	199530	14057.2	8510.94	16432.9	31.1929	746.569
9	158490	15610.9	8400.8	17727.7	28.2864	748.565
10	125890	17116.3	8195.88	18977.4	25.5867	750.516
11	100000	18488.5	7866.1	20092.3	23.0478	752.567
12	79433	19804.8	7450.99	21160	20.6174	754.503
13	63096	20950.6	6985.37	22084.5	18.4394	756.664
14	50119	22008.5	6470.27	22939.9	16.3828	758.71
15	39811	22965.6	5943.09	23722.2	14.5088	760.736
16	31623	23770.1	5364.87	24368	12.7184	762.718
17	25119	24420.5	4923.54	24911.9	11.3989	764.654
18	19953	25062.1	4496.54	25462.3	10.1716	766.675
19	15849	25630.6	4089.99	25954.9	9.06649	768.611
20	12589	26113.2	3750.3	26381.2	8.17276	770.677
21	10000	26547.8	3431.14	26768.6	7.36429	774.139
22	7943.3	26959.9	3176.98	27146.4	6.72079	776.02
23	6309.6	27340.3	2960.64	27500.2	6.18038	778.061
24	5011.9	27688.7	2779.32	27827.8	5.732	779.982
25	3981.1	28017.3	2626.69	28140.1	5.35597	782.013
26	3162.3	28341.3	2507.32	28452	5.05573	783.964
27	2511.9	28649.6	2406.69	28750.5	4.80181	785.89
28	1995.3	28948.3	2330.98	29041.9	4.60367	787.931
29	1584.9	29242.5	2276.74	29331	4.45192	789.957
30	1258.9	29533.6	2240.09	29618.4	4.33751	791.853
31	1000	29824.5	2208.85	29906.1	4.2357	793.804
32	794.33	30122.7	2195.22	30202.6	4.16812	795.86
33	630.96	30436.9	2187.35	30515.4	4.1105	797.801
34	501.19	30742.5	2187.75	30820.2	4.07051	799.792
35	398.11	31048.6	2194.49	31126.1	4.04289	801.733
36	316.23	31365.1	2204.28	31442.5	4.02003	803.654
37	251.19	31702.2	2218.46	31779.8	4.00292	805.72
38	199.53	32018	2234.33	32095.8	3.99183	807.716
39	158.49	32336.8	2248.24	32414.9	3.97713	809.837
40	125.89	32669.7	2262.2	32747.9	3.96111	811.943
41	100	32986.5	2277.3	33065	3.94928	813.939
42	79.433	33327.7	2293.8	33406.5	3.93721	816.091
43	63.096	33660.7	2298.18	33739.1	3.90579	818.162
44	50.119	34026.7	2321.72	34105.8	3.90338	820.273
45	39.811	34359.5	2326.89	34438.2	3.87426	830.064
46	31.623	34709.9	2332.25	34788.2	3.84408	832.325
47	25.119	35052.4	2329.72	35129.7	3.80252	834.621
48	19.953	35389.2	2343.48	35466.7	3.7886	837.117
49	15.849	35754	2348.88	35831.1	3.75867	839.843
50	12.589	36085.3	2340.8	36161.2	3.71149	842.514
51	10	36431.1	2343.2	36506.4	3.68012	845.365
52	7.9433	36773.7	2333.91	36847.7	3.6315	848.281
53	6.3096	37093.2	2334.63	37166.6	3.60142	851.312
54	5.0119	37407.9	2337.71	37480.9	3.57591	854.478
55	3.9811	37726.7	2355.73	37800.1	3.57303	857.584
56	3.1623	38014.5	2392.07	38089.7	3.6006	860.715
57	2.5119	38285.6	2452.17	38364	3.66476	864.036
58	1.9953	38574	2542.82	38657.8	3.7715	867.567
59	1.5849	38839.3	2653.99	38929.8	3.90909	870.969
60	1.2589	39116.9	2812.78	39217.9	4.1129	874.5
61	1	39384	3069.28	39503.5	4.45617	880.812
62	0.79433	39638.2	3371.45	39781.3	4.86163	884.578
63	0.63096	39904	3724.7	40077.5	5.33262	888.704
64	0.50119	40186.7	4253.37	40411.2	6.0417	893.215
65	0.39811	40472.8	4832.93	40760.4	6.80955	898.031
66	0.31623	40805.8	5695.04	41201.3	7.94514	903.452
67	0.25119	41182.3	6615.72	41710.3	9.1263	909.528
68	0.19953	41538.5	7975.93	42297.3	10.8693	916.324
69	0.15849	41917.5	9475	42975.1	12.737	924.191
70	0.12589	42574.1	11383.3	44069.7	14.9694	933.302
71	0.1	43356.9	13415.7	45385	17.1934	944.168

File: Z_p28_1.txt
Index	Frequency (Hz)	Z' (Ω)	-Z'' (Ω)	Z (Ω)	-Phase (°)	Time (s)
1	1000000	3323.71	6286.1	7110.7	62.1328	142.053
2	794330	4707.1	6522.39	8043.53	54.1827	143.688
3	630960	6182.21	7101.68	9415.61	48.9596	145.363
4	501190	7750.93	7747.89	10959.3	44.9888	147.048
5	398110	9706.11	8822.95	13116.9	42.2712	152.249
6	316230	11311.8	9233.65	14602	39.2242	153.789
7	251190	12955.6	9171.27	15873.3	35.2946	159.059
8	199530	14697.4	9316.98	17401.7	32.3714	160.514
9	158490	16390.9	9245.31	18818.6	29.4252	162.109
10	125890	18080.2	9056.86	20221.8	26.6075	163.459
11	100000	19620.9	8720.06	21471.4	23.9616	164.969
12	79433	21034.2	8254.02	22595.7	21.4255	166.379
13	63096	22410.4	7789.89	23725.7	19.1675	167.804
14	50119	23612.3	7245.4	24698.9	17.0585	169.254
15	39811	24664.3	6651.61	25545.4	15.0928	170.734
16	31623	25591.3	6101.54	26308.6	13.4103	172.209
17	25119	26362.3	5529.43	26936	11.8459	173.669
18	19953	27044.6	5051.16	27512.3	10.5793	175.094
19	15849	27697.6	4630.85	28082.1	9.49166	176.514
20	12589	28244.4	4189.66	28553.4	8.43751	177.904
21	10000	28728.7	3839.21	28984.1	7.61173	180.294
22	7943.3	29192.4	3549.4	29407.3	6.93238	181.589
23	6309.6	29606.4	3302.33	29790	6.36454	182.999
24	5011.9	29991.6	3095.83	30151	5.89337	184.484
25	3981.1	30360.2	2926.45	30500.9	5.50579	185.949
26	3162.3	30700.2	2790.36	30826.8	5.19337	187.429
27	2511.9	31041.5	2683.05	31157.3	4.94004	188.854
28	1995.3	31377.9	2601.26	31485.5	4.73906	190.279
29	1584.9	31721.7	2541.76	31823.4	4.58114	191.639
30	1258.9	32051.3	2498.76	32148.5	4.45784	193.074
31	1000	32376.3	2473.31	32470.6	4.36849	194.534
32	794.33	32707.4	2456.6	32799.6	4.29532	196.009
33	630.96	33033.6	2456.23	33124.8	4.25243	197.284
34	501.19	33382.5	2456.33	33472.8	4.20831	198.724
35	398.11	33747.1	2467.04	33837.1	4.1811	200.279
36	316.23	34087.6	2480.58	34177.7	4.16212	201.88
37	251.19	34458.2	2499.61	34548.7	4.149	203.415
38	199.53	34836.2	2515.3	34926.9	4.1298	204.86
39	158.49	35187.7	2531.61	35278.7	4.11509	206.225
40	125.89	35567.8	2551.26	35659.1	4.10277	207.7
41	100	35941.6	2560.63	36032.7	4.07511	209.195
42	79.433	36304.9	2568.9	36395.6	4.04746	210.81
43	63.096	36707	2577.09	36797.3	4.01598	212.445
44	50.119	37092.4	2566.83	37181.1	3.95861	214.015
45	39.811	37475.1	2589.86	37564.5	3.95336	223.35
46	31.623	37852.4	2585.92	37940.6	3.90815	225.1
47	25.119	38239.2	2583.94	38326.4	3.86577	226.81
48	19.953	38606.3	2586.57	38692.9	3.83301	228.9
49	15.849	39019.2	2574.74	39104	3.77528	231.09
50	12.589	39404.3	2566.87	39487.8	3.72709	233.175
51	10	39756.1	2554.01	39838.1	3.67574	235.525
52	7.9433	40126	2542.19	40206.5	3.62514	238.105
53	6.3096	40472	2529.61	40550.9	3.5765	240.585
54	5.0119	40803.3	2522.32	40881.2	3.53733	243.1
55	3.9811	41137	2542.43	41215.5	3.53661	245.77
56	3.1623	41421.8	2573.39	41501.6	3.55501	248.44
57	2.5119	41722.4	2647.01	41806.3	3.63017	251.21
58	1.9953	42028	2738.48	42117.1	3.72803	253.905
59	1.5849	42285.9	2893.75	42384.8	3.91481	256.746
60	1.2589	42507.7	3074.11	42618.8	4.13636	259.866
61	1	42800.8	3381.7	42934.2	4.51756	265.411
62	0.79433	43097.2	3741.89	43259.3	4.96223	268.546
63	0.63096	43375.3	4195.76	43577.8	5.52512	272.021
64	0.50119	43649.9	4800.13	43913	6.27553	276.036
65	0.39811	43970.1	5564.03	44320.7	7.21194	280.326
66	0.31623	44283.5	6545.47	44764.6	8.40792	285.261
67	0.25119	44732.1	7933	45430.1	10.0565	290.886
68	0.19953	45201.9	9380.15	46164.9	11.7234	297.206
69	0.15849	45843.8	11244.9	47202.8	13.7818	304.536
70	0.12589	46732.9	13244.9	48573.6	15.8236	313.212
71	0.1	47207.5	15900.4	49813.4	18.6145	323.527

File: Z_p28_2.txt
Index	Frequency (Hz)	Z' (Ω)	-Z'' (Ω)	Z (Ω)	-Phase (°)	Time (s)
1	1000000	3302.22	6278.79	7094.22	62.2586	470.247
2	794330	4735.3	6591.22	8115.86	54.3055	471.817
3	630960	6198.94	7116.82	9438.01	48.9433	473.297
4	501190	7738.06	7772.37	10967.6	45.1267	474.792
5	398110	9679.68	8754.75	13051.5	42.1276	480.362
6	316230	11427.9	9267.66	14713.5	39.0409	481.893
7	251190	12948.7	9178.93	15872	35.3316	487.208
8	199530	14686.5	9327.52	17398.2	32.42	488.763
9	158490	16423.9	9245.18	18847.2	29.3757	490.408
10	125890	18073.5	9049.39	20212.4	26.5971	491.898
11	100000	19618.1	8719.31	21468.5	23.9629	493.318
12	79433	21089.3	8306.13	22666.1	21.4973	494.713
13	63096	22398.3	7801.17	23718	19.2029	496.093
14	50119	23597.1	7257.25	24687.9	17.0952	497.513
15	39811	24701.6	6639.55	25578.3	15.045	498.978
16	31623	25596.3	6033.44	26297.7	13.2634	500.488
17	25119	26359.7	5547.18	26937	11.884	502.008
18	19953	27054.3	5053.21	27522.2	10.5798	503.503
19	15849	27663.4	4599.31	28043.2	9.43963	505.063
20	12589	28251.2	4199.05	28561.5	8.45414	506.633
21	10000	28752.9	3840.99	29008.3	7.60887	509.098
22	7943.3	29214.9	3552.37	29430.1	6.9328	510.533
23	6309.6	29626.4	3306.72	29810.3	6.36866	512.123
24	5011.9	30020.1	3095.22	30179.2	5.88668	513.678
25	3981.1	30376.7	2925.65	30517.3	5.50132	515.328
26	3162.3	30730.7	2789.88	30857.1	5.18738	516.963
27	2511.9	31062.2	2682.97	31177.8	4.93663	518.563
28	1995.3	31403	2603.31	31510.7	4.73897	520.143
29	1584.9	31742.8	2541.04	31844.4	4.57682	521.803
30	1258.9	32060.3	2499.4	32157.6	4.45772	523.103
31	1000	32402.1	2474.09	32496.4	4.3664	524.598
32	794.33	32723.3	2459.62	32815.7	4.2985	526.178
33	630.96	33069.2	2455.49	33160.3	4.24659	527.673
34	501.19	33418.9	2459.38	33509.3	4.20896	529.198
35	398.11	33769.4	2468.76	33859.5	4.18125	530.758
36	316.23	34123.8	2484.07	34214.1	4.16354	532.343
37	251.19	34503	2500.29	34593.5	4.14474	533.878
38	199.53	34848.7	2516.76	34939.5	4.1307	535.213
39	158.49	35220.9	2536.73	35312.1	4.11952	536.609
40	125.89	35583.5	2548.28	35674.7	4.09618	538.049
41	100	35963.8	2561.99	36054.9	4.07475	539.394
42	79.433	36345	2575.5	36436.1	4.05335	540.909
43	63.096	36711.1	2587.87	36802.2	4.03228	542.544
44	50.119	37125.4	2590.59	37215.7	3.99159	544.114
45	39.811	37498.2	2598.44	37588.2	3.96398	553.244
46	31.623	37894.2	2597.09	37983.1	3.92066	554.859
47	25.119	38285.2	2585.26	38372.4	3.86311	556.519
48	19.953	38673.7	2595.96	38760.7	3.8402	558.534
49	15.849	39054.8	2592.06	39140.7	3.79714	560.524
50	12.589	39420.8	2568.89	39504.4	3.72845	562.739
51	10	39790.1	2559.93	39872.4	3.68111	565.084
52	7.9433	40176.7	2544.73	40257.2	3.62419	567.599
53	6.3096	40519.1	2539.1	40598.6	3.58571	570.144
54	5.0119	40845	2536.63	40923.7	3.55373	572.654
55	3.9811	41164.8	2557.59	41244.2	3.55525	575.214
56	3.1623	41506	2581	41586.1	3.55828	577.934
57	2.5119	41769.3	2654.87	41853.5	3.63685	580.804
58	1.9953	42085.7	2746.36	42175.2	3.73361	583.704
59	1.5849	42335	2908.31	42434.8	3.9299	586.449
60	1.2589	42603.1	3109.18	42716.4	4.17406	589.39
61	1	42859.4	3406.43	42994.5	4.54427	594.59
62	0.79433	43176.3	3785.15	43341.9	5.01016	597.85
63	0.63096	43450.7	4247.69	43657.9	5.58342	601.605
64	0.50119	43732	4845.08	43999.6	6.32204	605.555
65	0.39811	44059.9	5683.33	44425	7.35005	609.82
66	0.31623	44406.7	6616.56	44896.9	8.47467	614.67
67	0.25119	44798.9	7994.95	45506.7	10.1187	620.27
68	0.19953	45242.4	9391.38	46206.8	11.7269	626.665
69	0.15849	45847.2	11268.2	47211.7	13.8082	634.175
70	0.12589	46803.9	13562.6	48729.3	16.1603	642.82
71	0.1	47506.4	15824.5	50072.7	18.423	653.071

File: Z_p28_3.txt
Index	Frequency (Hz)	Z' (Ω)	-Z'' (Ω)	Z (Ω)	-Phase (°)	Time (s)
1	1000000	3248.15	6243.86	7038.2	62.5158	782.759
2	794330	4709.83	6535.27	8055.57	54.2205	784.929
3	630960	6191.62	7089.61	9412.69	48.8681	787.054
4	501190	7679.96	7739.21	10903.1	45.2202	789.309
5	398110	9664.13	8777.18	13055	42.2464	798.074
6	316230	11520	9200.28	14743	38.612	800.074
7	251190	12981.6	9192.63	15906.8	35.3035	806.979
8	199530	14727.9	9312.81	17425.2	32.3063	809.084
9	158490	16461.9	9252.85	18884.1	29.3394	811.189
10	125890	18106.7	9081.09	20256.3	26.6353	813.129
11	100000	19666.1	8758.14	21528.1	24.0055	815.265
12	79433	21012.6	8344.42	22608.8	21.6588	817.255
13	63096	22337.2	7801.42	23660.3	19.2521	819.51
14	50119	23629.6	7272.84	24723.5	17.1076	821.925
15	39811	24726.9	6681.22	25613.7	15.1203	824.105
16	31623	25637.1	6079.48	26348	13.3405	826.17
17	25119	26398.8	5535.8	26973	11.8432	828.255
18	19953	27123.1	5048.34	27588.9	10.5436	830.39
19	15849	27745.7	4621.95	28128	9.45764	832.38
20	12589	28263.9	4241.13	28580.3	8.53384	834.495
21	10000	28787	3847.11	29042.9	7.61194	838.255
22	7943.3	29246.5	3556.6	29462	6.93356	840.16
23	6309.6	29674	3309.99	29858.1	6.36474	842.255
24	5011.9	30053.7	3102.2	30213.3	5.89331	844.26
25	3981.1	30422.5	2932.79	30563.6	5.50641	846.4
26	3162.3	30773.7	2795.84	30900.5	5.19115	848.405
27	2511.9	31123.2	2694.13	31239.5	4.94738	850.565
28	1995.3	31444.2	2606.93	31552.1	4.73937	852.61
29	1584.9	31780.5	2544.08	31882.1	4.57687	854.615
30	1258.9	32100.3	2500.62	32197.6	4.45436	856.56
31	1000	32433.9	2474.79	32528.2	4.36337	858.63
32	794.33	32776	2461.94	32868.4	4.29565	860.695
33	630.96	33129.4	2460.69	33220.7	4.24784	862.725
34	501.19	33464.1	2462.6	33554.6	4.20878	864.76
35	398.11	33799.5	2470.53	33889.7	4.18053	866.72
36	316.23	34180	2485.86	34270.2	4.15972	868.765
37	251.19	34536.6	2500.98	34627.1	4.14186	870.801
38	199.53	34900.7	2517.62	34991.3	4.12598	872.791
39	158.49	35272.1	2537.43	35363.2	4.1147	874.881
40	125.89	35648.7	2552.74	35740	4.09586	876.981
41	100	36020.6	2566.71	36112	4.07582	879.126
42	79.433	36396.9	2576.56	36488	4.04926	881.241
43	63.096	36782.2	2596.86	36873.8	4.03843	883.401
44	50.119	37149.3	2588.64	37239.4	3.98605	885.656
45	39.811	37563.6	2597.1	37653.3	3.95506	895.521
46	31.623	37936.8	2596.43	38025.5	3.91527	897.866
47	25.119	38336.4	2590.66	38423.8	3.86601	900.146
48	19.953	38722.3	2600.85	38809.5	3.8426	902.766
49	15.849	39097.2	2587.22	39182.7	3.78597	905.486
50	12.589	39464.7	2573.75	39548.5	3.73134	908.366
51	10	39852.4	2561.54	39934.6	3.67766	911.386
52	7.9433	40216.2	2547.41	40296.7	3.62444	914.451
53	6.3096	40575.5	2536.34	40654.7	3.57685	917.486
54	5.0119	40912	2538.65	40990.7	3.55074	920.741
55	3.9811	41235.1	2554.06	41314.1	3.54432	923.987
56	3.1623	41550.7	2580.94	41630.8	3.55439	927.332
57	2.5119	41848.3	2655.97	41932.5	3.63151	930.677
58	1.9953	42145.1	2760.79	42235.4	3.74791	934.107
59	1.5849	42410.1	2906.51	42509.6	3.92054	937.607
60	1.2589	42638	3135.9	42753.1	4.20637	941.237
61	1	42940.4	3406.21	43075.3	4.53544	947.852
62	0.79433	43213.3	3759.39	43376.5	4.97199	951.712
63	0.63096	43463	4254.59	43670.8	5.59086	955.972
64	0.50119	43755.9	4832	44021.8	6.3017	960.492
65	0.39811	44046	5645.04	44406.3	7.30335	965.372
66	0.31623	44462.8	6615.59	44952.3	8.46291	970.867
67	0.25119	44864.2	7822.55	45541.1	9.8907	976.972
68	0.19953	45484	9536.54	46473	11.8416	984.048
69	0.15849	45879.4	11210.8	47229.3	13.7314	992.298
70	0.12589	46670.9	13576.8	48605.6	16.22	1001.46
71	0.1	47802.1	16174.2	50464.3	18.6937	1012.42

File: Z_p29_1.txt
Index	Frequency (Hz)	Z' (Ω)	-Z'' (Ω)	Z (Ω)	-Phase (°)	Time (s)
1	1000000	3179.68	5603.88	6443.13	60.4291	145.653
2	794330	4428.07	5782.43	7283.15	52.5558	147.138
3	630960	5676.25	6272.03	8459.21	47.8546	148.584
4	501190	7004.6	6725.43	9710.6	43.8352	150.024
5	398110	8604.79	7565.77	11457.9	41.3236	155.079
6	316230	9995	7834.27	12699.4	38.09	156.379
7	251190	11323.7	7958.26	13840.5	35.0995	160.559
8	199530	12779.8	8142.37	15153.2	32.5025	161.909
9	158490	14232.6	8232.93	16442.3	30.0475	163.344
10	125890	15694.9	8176.28	17696.9	27.5173	164.729
11	100000	17100.6	8031.53	18892.8	25.1577	166.144
12	79433	18463.9	7798.77	20043.3	22.8982	167.494
13	63096	19776	7481.21	21143.8	20.7215	168.889
14	50119	20967	7078.54	22129.6	18.6549	170.299
15	39811	22108.4	6595.28	23071.2	16.6106	171.609
16	31623	23077.8	6033.66	23853.5	14.6519	172.884
17	25119	23944.3	5542.13	24577.3	13.0321	174.249
18	19953	24679.1	5052.29	25190.9	11.5697	175.589
19	15849	25352.9	4571.25	25761.7	10.2209	176.944
20	12589	25923.5	4135.96	26251.3	9.06485	178.284
21	10000	26416.7	3711.4	26676.2	7.99738	180.514
22	7943.3	26853.7	3374.61	27064.9	7.16261	181.719
23	6309.6	27245.2	3083.81	27419.2	6.45767	182.999
24	5011.9	27586.4	2832.76	27731.5	5.86297	184.374
25	3981.1	27899.5	2623.19	28022.6	5.37132	185.734
26	3162.3	28200	2451.49	28306.4	4.96835	187.019
27	2511.9	28483.1	2311.99	28576.8	4.64056	188.304
28	1995.3	28749.7	2199.64	28833.7	4.37519	189.644
29	1584.9	29014.4	2112.83	29091.3	4.16492	190.949
30	1258.9	29279.8	2043.86	29351	3.99303	192.254
31	1000	29525	1989.43	29592	3.85483	193.564
32	794.33	29803.2	1950.66	29867	3.74475	194.999
33	630.96	30055.6	1923.74	30117.1	3.66228	196.299
34	501.19	30316.9	1905.1	30376.7	3.59571	197.729
35	398.11	30582.2	1891.53	30640.6	3.53927	198.939
36	316.23	30850.9	1884.17	30908.4	3.4949	200.414
37	251.19	31107.3	1882.58	31164.2	3.46326	201.75
38	199.53	31395.7	1881.36	31452	3.4293	202.975
39	158.49	31666.7	1884.01	31722.7	3.4048	204.39
40	125.89	31942	1886.14	31997.7	3.37932	205.74
41	100	32202	1887.07	32257.2	3.35376	207.09
42	79.433	32491.7	1890.61	32546.6	3.33014	208.52
43	63.096	32748.2	1889.26	32802.6	3.30176	209.95
44	50.119	33026.6	1892.24	33080.8	3.27913	211.5
45	39.811	33324.8	1878.76	33377.7	3.22677	220.71
46	31.623	33608.1	1868.11	33660	3.18152	222.35
47	25.119	33900.5	1859.68	33951.5	3.13992	223.99
48	19.953	34166.8	1854.52	34217.1	3.10687	225.91
49	15.849	34417.5	1838.65	34466.6	3.05794	227.915
50	12.589	34707.8	1820.21	34755.5	3.00206	229.965
51	10	34963.9	1802.87	35010.4	2.95176	232.3
52	7.9433	35222.5	1789.69	35268	2.90876	234.63
53	6.3096	35463.5	1770.59	35507.6	2.85824	237.12
54	5.0119	35696.4	1763.77	35740	2.82871	239.53
55	3.9811	35910	1766.96	35953.4	2.81698	242.005
56	3.1623	36132.3	1788.07	36176.5	2.83307	244.535
57	2.5119	36341.7	1833.98	36387.9	2.88897	247.145
58	1.9953	36551.8	1886.05	36600.4	2.95382	249.89
59	1.5849	36777.6	1988.53	36831.4	3.09491	252.775
60	1.2589	36953	2085.85	37011.8	3.23069	255.7
61	1	37165.9	2272.49	37235.3	3.49897	260.921
62	0.79433	37362.2	2478.37	37444.3	3.79507	264.101
63	0.63096	37548	2749.06	37648.5	4.18742	267.701
64	0.50119	37778.1	3095.41	37904.7	4.68416	271.491
65	0.39811	38011.7	3559.28	38178	5.34938	275.771
66	0.31623	38280.9	4114.62	38501.4	6.13487	280.656
67	0.25119	38482.4	4823.72	38783.6	7.14468	286.201
68	0.19953	38780.7	5627.51	39186.9	8.25662	292.546
69	0.15849	39101.3	6757.45	39680.9	9.80497	299.801
70	0.12589	39670.2	8113.23	40491.4	11.5585	308.486
71	0.1	40050.4	9468.62	41154.5	13.3015	318.707