Folder: Streamlit_cement_impedance/data/20200619 (part 6)

File: Z_p29_2.txt
Index	Frequency (Hz)	Z' (Ω)	-Z'' (Ω)	Z (Ω)	-Phase (°)	Time (s)
1	1000000	3242.51	5492.09	6377.85	59.4425	439.693
2	794330	4402.4	5796.63	7278.87	52.7842	441.113
3	630960	5670.42	6281.4	8462.25	47.9264	442.513
4	501190	7009.19	6798.58	9764.7	44.1261	443.983
5	398110	8589.73	7572.71	11451.2	41.3994	448.963
6	316230	9953	7937.91	12730.8	38.5738	450.348
7	251190	11293.5	7954.74	13813.8	35.1596	455.378
8	199530	12778.8	8127.82	15144.6	32.4579	456.788
9	158490	14230.1	8215.11	16431.2	29.9981	458.293
10	125890	15690.4	8175.36	17692.5	27.5214	459.633
11	100000	17086.1	8032.55	18880.1	25.1792	461.048
12	79433	18437.5	7832.15	20032.1	23.0155	462.393
13	63096	19767.9	7465.68	21130.7	20.6899	463.723
14	50119	20979.2	7075.12	22140.1	18.6364	465.158
15	39811	22125.8	6588.16	23085.8	16.5814	466.423
16	31623	23086.9	6059	23868.7	14.7053	467.713
17	25119	23905.3	5526.75	24535.9	13.0177	469.038
18	19953	24676.5	5044.81	25186.9	11.5542	470.343
19	15849	25344.6	4571.53	25753.6	10.2248	471.683
20	12589	25890.7	4118.53	26216.3	9.03851	473.013
21	10000	26391.2	3706.27	26650.1	7.99411	475.243
22	7943.3	26833.1	3372.31	27044.2	7.16323	476.458
23	6309.6	27219.3	3078.97	27392.8	6.45371	477.738
24	5011.9	27565.3	2830.51	27710.2	5.8628	479.098
25	3981.1	27873.7	2620.33	27996.6	5.37044	480.443
26	3162.3	28186.3	2451.76	28292.7	4.9713	481.774
27	2511.9	28455.1	2311.25	28548.9	4.64362	483.099
28	1995.3	28736.2	2198.46	28820.1	4.37489	484.389
29	1584.9	28999.5	2111.59	29076.3	4.16462	485.719
30	1258.9	29252.8	2038.73	29323.8	3.9867	487.004
31	1000	29515.6	1989.18	29582.5	3.85557	488.309
32	794.33	29781.8	1950.14	29845.5	3.74644	489.614
33	630.96	30051.3	1921.6	30112.7	3.65874	490.904
34	501.19	30308.6	1902.38	30368.3	3.59157	492.234
35	398.11	30569.4	1890.69	30627.9	3.53917	493.509
36	316.23	30842.3	1884.81	30899.8	3.49706	494.839
37	251.19	31106.5	1880.4	31163.3	3.45934	496.159
38	199.53	31369.1	1881.03	31425.5	3.43159	497.409
39	158.49	31654.6	1885.09	31710.7	3.40804	498.779
40	125.89	31917.3	1885.42	31973	3.38065	500.174
41	100	32196.3	1885.98	32251.5	3.35242	501.549
42	79.433	32483.3	1886.92	32538.1	3.32451	502.949
43	63.096	32734	1888.89	32788.5	3.30254	504.454
44	50.119	33055.8	1874.01	33108.9	3.24475	505.944
45	39.811	33303.5	1877.7	33356.4	3.22699	515.064
46	31.623	33598.9	1868.73	33650.8	3.18345	516.664
47	25.119	33865.4	1859.21	33916.3	3.14239	518.349
48	19.953	34151.5	1853.67	34201.7	3.10685	520.294
49	15.849	34426.7	1839.39	34475.9	3.05836	522.279
50	12.589	34681.9	1820.11	34729.6	3.00413	524.309
51	10	34948.3	1801.43	34994.7	2.95073	526.719
52	7.9433	35187.8	1784.72	35233	2.90355	529.019
53	6.3096	35460.5	1777.05	35505	2.8689	531.429
54	5.0119	35678.3	1765.46	35721.9	2.83285	533.894
55	3.9811	35898.9	1771.6	35942.6	2.82523	536.265
56	3.1623	36116.6	1786.55	36160.8	2.83189	538.79
57	2.5119	36353.5	1840.5	36400.1	2.89828	541.345
58	1.9953	36555.7	1891.71	36604.6	2.96234	544
59	1.5849	36763.7	1983.2	36817.2	3.08779	546.795
60	1.2589	36974	2113.68	37034.4	3.27185	549.705
61	1	37143.7	2280.87	37213.7	3.51393	554.83
62	0.79433	37370.7	2484.43	37453.2	3.80347	557.985
63	0.63096	37569.4	2756.62	37670.4	4.1965	561.555
64	0.50119	37785.3	3089.52	37911.4	4.6744	565.43
65	0.39811	38026.5	3537.12	38190.6	5.3142	569.63
66	0.31623	38218.7	4096.35	38437.6	6.11772	574.405
67	0.25119	38561.8	4852.49	38865.9	7.17221	579.9
68	0.19953	38857.1	5716.49	39275.3	8.36909	586.19
69	0.15849	39268.2	6777.15	39848.8	9.79199	593.566
70	0.12589	39639.1	7941.45	40426.8	11.3289	602.271
71	0.1	40049.9	9784.04	41227.7	13.7283	612.456

File: Z_p29_3.txt
Index	Frequency (Hz)	Z' (Ω)	-Z'' (Ω)	Z (Ω)	-Phase (°)	Time (s)
1	1000000	3204.46	5603.84	6455.35	60.2377	742.51
2	794330	4377.32	5785.98	7255.24	52.8911	744.665
3	630960	5672.31	6258.76	8446.73	47.814	746.835
4	501190	6971.85	6787.89	9730.47	44.234	749.16
5	398110	8591.91	7585.09	11461	41.4386	758.475
6	316230	10023.2	7914.41	12771.1	38.295	760.66
7	251190	11338.6	7964.97	13856.5	35.0868	768.021
8	199530	12822	8141.63	15188.5	32.4144	770.176
9	158490	14265.2	8214.69	16461.4	29.9357	772.311
10	125890	15701.2	8177.8	17703.2	27.5123	774.446
11	100000	17108.4	8040.69	18903.7	25.1728	776.641
12	79433	18483.4	7801.51	20062.4	22.8837	778.696
13	63096	19785.7	7481.12	21152.8	20.7119	780.996
14	50119	21008	7082.27	22169.7	18.6301	783.201
15	39811	22150.5	6593.16	23110.9	16.5758	785.466
16	31623	23126.4	6022.91	23897.8	14.5976	787.601
17	25119	23948.8	5533.24	24579.7	13.0096	789.776
18	19953	24699.4	5051.94	25210.8	11.5596	791.871
19	15849	25367.9	4546.62	25772.1	10.1611	794.031
20	12589	25931.8	4131.91	26259	9.05325	796.186
21	10000	26439.8	3714.53	26699.5	7.99713	800.166
22	7943.3	26863.7	3374.97	27074.9	7.16073	802.191
23	6309.6	27238.7	3080.37	27412.4	6.45205	804.311
24	5011.9	27595	2832.26	27740	5.86014	806.431
25	3981.1	27916.3	2623.87	28039.3	5.36951	808.711
26	3162.3	28219.3	2452.66	28325.7	4.96734	810.841
27	2511.9	28502.5	2312.99	28596.2	4.63942	813.086
28	1995.3	28766.1	2200.41	28850.1	4.37421	815.301
29	1584.9	29042.3	2114.53	29119.2	4.16428	817.467
30	1258.9	29280.2	2043.33	29351.4	3.99195	819.497
31	1000	29563.4	1992	29630.4	3.8548	821.627
32	794.33	29807.5	1950.54	29871.2	3.74398	823.872
33	630.96	30078.8	1923.83	30140.3	3.65963	826.162
34	501.19	30337.8	1901.98	30397.4	3.58738	828.407
35	398.11	30602.2	1891.93	30660.6	3.53772	830.482
36	316.23	30865.4	1882.06	30922.7	3.48936	832.642
37	251.19	31131.3	1882.63	31188.1	3.46069	834.882
38	199.53	31406.4	1879.93	31462.6	3.42553	837.002
39	158.49	31685.2	1885.86	31741.3	3.40615	839.147
40	125.89	31974.1	1885.96	32029.7	3.37563	841.312
41	100	32231.1	1887.75	32286.4	3.35193	843.427
42	79.433	32513.1	1887.79	32567.9	3.323	845.712
43	63.096	32808.4	1887.78	32862.6	3.29314	847.997
44	50.119	33055.4	1872.06	33108.4	3.24142	850.347
45	39.811	33357.5	1880.62	33410.5	3.22679	860.337
46	31.623	33629.9	1867.24	33681.7	3.17798	862.867
47	25.119	33917.3	1856.25	33968.1	3.1326	865.397
48	19.953	34174.9	1855.73	34225.2	3.10817	868.157
49	15.849	34457	1844.24	34506.3	3.06372	870.903
50	12.589	34737.2	1823.2	34785.1	3.00444	873.768
51	10	34991.7	1803.85	35038.2	2.95104	876.898
52	7.9433	35248.7	1787.85	35294	2.90362	880.043
53	6.3096	35498.6	1780.22	35543.2	2.87092	883.223
54	5.0119	35723.8	1769.02	35767.6	2.83494	886.428
55	3.9811	35954.5	1773.61	35998.2	2.82408	889.613
56	3.1623	36173.6	1804.53	36218.6	2.85585	893.033
57	2.5119	36398.7	1831.37	36444.8	2.88036	896.548
58	1.9953	36588.8	1895.61	36637.8	2.96576	900.013
59	1.5849	36808.1	1979.5	36861.3	3.07834	903.508
60	1.2589	36993.4	2091.78	37052.5	3.23633	907.108
61	1	37214.7	2277.06	37284.3	3.50139	913.703
62	0.79433	37402.2	2493.24	37485.2	3.8137	917.743
63	0.63096	37626.1	2759.7	37727.2	4.19487	922.013
64	0.50119	37802.5	3094.92	37929	4.68041	926.549
65	0.39811	38026.8	3558.64	38192.9	5.3463	931.559
66	0.31623	38284.7	4101.02	38503.7	6.11415	937.139
67	0.25119	38541.9	4799.27	38839.5	7.09799	943.299
68	0.19953	38959	5762.31	39382.9	8.41345	950.219
69	0.15849	39220.6	6829.48	39810.8	9.87787	958.284
70	0.12589	39729.5	8177.89	40562.5	11.6313	967.529
71	0.1	40290.5	9601.25	41418.7	13.4036	978.515

File: Z_p30_1.txt
Index	Frequency (Hz)	Z' (Ω)	-Z'' (Ω)	Z (Ω)	-Phase (°)	Time (s)
1	1000000	3598.02	5965.11	6966.22	58.9026	140.649
2	794330	4993.18	6144.22	7917.28	50.9005	142.299
3	630960	6362.59	6503.81	9098.46	45.6288	143.844
4	501190	7845.56	6963.5	10490.1	41.5914	145.574
5	398110	9669.08	7669.49	12341.5	38.4214	150.965
6	316230	11228.1	7820.36	13683.2	34.8571	152.245
7	251190	12407.3	7591.29	14545.4	31.4599	156.635
8	199530	13841.1	7547.42	15765.2	28.6032	157.975
9	158490	15183.9	7366.76	16876.6	25.8812	159.42
10	125890	16454.3	7091.66	17917.5	23.3156	160.745
11	100000	17605	6753.09	18855.7	20.9863	162.29
12	79433	18672.5	6353.61	19723.9	18.7916	163.775
13	63096	19633.7	5938.71	20512.2	16.8293	165.395
14	50119	20519.5	5506.19	21245.4	15.0209	166.995
15	39811	21317.3	5084.57	21915.3	13.4155	168.56
16	31623	21966.5	4597.08	22442.3	11.8201	170.2
17	25119	22540.6	4223.21	22932.8	10.6119	171.76
18	19953	23091.9	3886.89	23416.7	9.55462	173.255
19	15849	23567.2	3569.27	23836	8.61202	174.595
20	12589	23973	3265.2	24194.4	7.75613	175.955
21	10000	24392.8	3009.11	24577.7	7.03249	178.37
22	7943.3	24752.4	2803.57	24910.6	6.46205	179.695
23	6309.6	25094.1	2629.69	25231.5	5.98237	181.135
24	5011.9	25411.8	2483.59	25532.9	5.582	182.54
25	3981.1	25718.1	2364.31	25826.6	5.25253	184.015
26	3162.3	26002.3	2266.66	26100.9	4.98198	185.325
27	2511.9	26281.6	2195.72	26373.2	4.77573	186.795
28	1995.3	26559.7	2132.23	26645.2	4.5899	188.165
29	1584.9	26837.2	2090.33	26918.4	4.45375	189.54
30	1258.9	27106.8	2061.49	27185	4.34902	190.895
31	1000	27401.2	2044.33	27477.3	4.26678	192.38
32	794.33	27669.4	2031.03	27743.8	4.19818	193.845
33	630.96	27944	2029.78	28017.6	4.15452	195.13
34	501.19	28242.9	2033.16	28315.9	4.11753	196.48
35	398.11	28532.6	2041.42	28605.6	4.09236	197.82
36	316.23	28831.1	2054.29	28904.2	4.07558	199.34
37	251.19	29128.4	2067.65	29201.7	4.06026	200.89
38	199.53	29438.1	2081.45	29511.6	4.04442	202.351
39	158.49	29736.4	2098.64	29810.3	4.03696	203.936
40	125.89	30041.3	2112.14	30115.5	4.02172	205.461
41	100	30343.1	2126.5	30417.5	4.00884	207.051
42	79.433	30669.4	2137.37	30743.8	3.98653	208.581
43	63.096	30984.2	2138.96	31058	3.94909	210.141
44	50.119	31310.2	2160.86	31384.7	3.94799	211.526
45	39.811	31637.9	2151.29	31711	3.88997	220.716
46	31.623	31962.9	2150.79	32035.2	3.84964	222.456
47	25.119	32290.5	2131.84	32360.8	3.77722	224.121
48	19.953	32621.5	2122.57	32690.5	3.72278	226.021
49	15.849	32949.8	2101.31	33016.8	3.64899	228.111
50	12.589	33251.5	2068.21	33315.7	3.55916	230.231
51	10	33571.7	2034.55	33633.3	3.46807	232.716
52	7.9433	33871.3	1994.07	33930	3.36923	235.106
53	6.3096	34154.6	1950.27	34210.3	3.26811	237.516
54	5.0119	34400	1913.27	34453.2	3.18341	239.986
55	3.9811	34673.1	1878.95	34723.9	3.10184	242.636
56	3.1623	34911.6	1847.53	34960.4	3.02929	245.296
57	2.5119	35137.2	1858.27	35186.3	3.02733	247.851
58	1.9953	35329.7	1860.26	35378.7	3.01407	250.816
59	1.5849	35566.6	1883.93	35616.4	3.03207	253.676
60	1.2589	35751.1	1976.24	35805.7	3.16396	256.617
61	1	35928.5	2070.74	35988.1	3.2986	261.937
62	0.79433	36137.2	2217.73	36205.2	3.51181	265.232
63	0.63096	36302.9	2399.52	36382.1	3.7816	268.782
64	0.50119	36462.8	2672.34	36560.6	4.19169	272.732
65	0.39811	36642.7	3014.49	36766.5	4.70296	276.962
66	0.31623	36827.1	3531.71	36996	5.4779	281.697
67	0.25119	37094.9	4059.63	37316.4	6.24554	287.397
68	0.19953	37333.4	4802.61	37641.1	7.33033	293.842
69	0.15849	37620.3	5668.94	38045	8.56935	301.127
70	0.12589	37820.9	6772.01	38422.4	10.1515	309.753
71	0.1	38318.2	8321.04	39211.3	12.2519	320.048

File: Z_p30_2.txt
Index	Frequency (Hz)	Z' (Ω)	-Z'' (Ω)	Z (Ω)	-Phase (°)	Time (s)
1	1000000	3595.32	6070.61	7055.39	59.3639	466.076
2	794330	4964.79	6132.37	7890.19	51.0063	467.566
3	630960	6361.26	6503.13	9097.05	45.6318	469.081
4	501190	7825.44	6921.58	10447.3	41.4927	471.061
5	398110	9681.08	7647.55	12337.3	38.3069	476.421
6	316230	11090.5	7865.33	13596.4	35.3441	477.896
7	251190	12388	7566.58	14516.1	31.4166	483.127
8	199530	13823.8	7537.33	15745.1	28.6012	484.502
9	158490	15177.5	7362.82	16869.1	25.8787	485.992
10	125890	16445.9	7094.76	17911	23.3353	487.447
11	100000	17603	6750.29	18852.9	20.9805	489.067
12	79433	18673.9	6358.49	19726.8	18.8038	490.632
13	63096	19634.8	5936.43	20512.6	16.8223	492.267
14	50119	20512.7	5512.52	21240.5	15.0421	493.802
15	39811	21289.6	5075.87	21886.4	13.4101	495.372
16	31623	21988.4	4609.04	22466.3	11.8385	496.857
17	25119	22544.6	4224.48	22937	10.6132	498.252
18	19953	23073.4	3868.59	23395.4	9.51796	499.822
19	15849	23542.7	3559.01	23810.2	8.59645	501.317
20	12589	23994.6	3267.36	24216	7.75431	502.922
21	10000	24399.6	3013.12	24584.9	7.03985	505.307
22	7943.3	24763.6	2806.77	24922.2	6.46645	506.787
23	6309.6	25094.1	2629.8	25231.5	5.98261	508.137
24	5011.9	25410.9	2484.61	25532.1	5.58447	509.442
25	3981.1	25720.2	2363.29	25828.6	5.24985	510.782
26	3162.3	26001.1	2266.51	26099.7	4.98188	512.287
27	2511.9	26286.3	2191.89	26377.6	4.76659	513.802
28	1995.3	26569.8	2133.52	26655.3	4.59092	515.282
29	1584.9	26823.9	2091.69	26905.4	4.45881	516.627
30	1258.9	27120.5	2064.79	27199	4.35374	518.052
31	1000	27386.2	2042.48	27462.2	4.26527	519.492
32	794.33	27672.9	2032.73	27747.5	4.20115	520.982
33	630.96	27950	2029.33	28023.6	4.15271	522.292
34	501.19	28246.1	2035.9	28319.4	4.12259	523.762
35	398.11	28543.5	2043.81	28616.5	4.09558	525.112
36	316.23	28829.3	2052.27	28902.2	4.07185	526.487
37	251.19	29141.5	2068.25	29214.8	4.05964	527.927
38	199.53	29455.2	2084.31	29528.8	4.04762	529.312
39	158.49	29736.6	2098.32	29810.6	4.0363	530.672
40	125.89	30049	2114.27	30123.3	4.02474	532.152
41	100	30357.1	2126.48	30431.5	4.00695	533.482
42	79.433	30666.6	2137.94	30741	3.98796	535.017
43	63.096	31003.4	2149.54	31077.8	3.9661	536.578
44	50.119	31308.7	2142.76	31382	3.9152	538.103
45	39.811	31640	2150.13	31713	3.88762	547.558
46	31.623	31981.9	2142.96	32053.6	3.83339	549.433
47	25.119	32306.6	2133.25	32376.9	3.77785	551.118
48	19.953	32628.1	2125.8	32697.3	3.72769	553.008
49	15.849	32945.1	2102.53	33012.2	3.65161	554.988
50	12.589	33265.6	2067.19	33329.7	3.5559	557.188
51	10	33570.8	2029.69	33632.1	3.4599	559.448
52	7.9433	33870.5	1995.02	33929.2	3.3709	561.893
53	6.3096	34157.2	1953.24	34213	3.27283	564.333
54	5.0119	34419	1915.3	34472.2	3.18503	566.783
55	3.9811	34690.7	1886.07	34741.9	3.112	569.273
56	3.1623	34915.2	1870.86	34965.3	3.06715	572.388
57	2.5119	35145.1	1859.68	35194.2	3.02894	574.983
58	1.9953	35366.2	1879.67	35416.1	3.04234	577.598
59	1.5849	35598.2	1901.67	35649	3.05786	580.413
60	1.2589	35756.4	1972.47	35810.7	3.15747	583.373
61	1	35977.4	2086.83	36037.9	3.31966	588.718
62	0.79433	36149.3	2234.99	36218.3	3.53791	591.924
63	0.63096	36333.4	2409.38	36413.2	3.7939	595.464
64	0.50119	36512.6	2692.18	36611.7	4.21695	599.454
65	0.39811	36707.5	3059.48	36834.8	4.76444	604.024
66	0.31623	36909.2	3514.7	37076.2	5.43962	608.844
67	0.25119	37074.8	4145.26	37305.8	6.37963	614.374
68	0.19953	37302.5	4849.76	37616.5	7.40757	620.654
69	0.15849	37586	5820.45	38034	8.80272	627.964
70	0.12589	38030.6	6858.75	38644.1	10.2233	636.489
71	0.1	38184.5	8264.12	39068.5	12.212	646.74

File: Z_p30_3.txt
Index	Frequency (Hz)	Z' (Ω)	-Z'' (Ω)	Z (Ω)	-Phase (°)	Time (s)
1	1000000	3620.79	6072.85	7070.33	59.1955	729.204
2	794330	4911.3	6123.72	7849.9	51.2699	731.35
3	630960	6387.73	6536.92	9139.72	45.6613	733.601
4	501190	7804.18	6911.86	10424.9	41.5301	735.792
5	398110	9682.32	7614.65	12317.9	38.1832	744.527
6	316230	11189.9	7800.34	13640.3	34.8799	746.563
7	251190	12419.9	7599	14560.1	31.46	753.372
8	199530	13828.1	7547.15	15753.6	28.625	755.383
9	158490	15181.2	7369.04	16875.2	25.8922	757.499
10	125890	16461.4	7099.21	17927	23.3288	759.485
11	100000	17616.2	6755.45	18867	20.9808	761.582
12	79433	18689	6365.74	19743.3	18.8096	763.663
13	63096	19647.3	5952.38	20529.2	16.8548	765.729
14	50119	20537.4	5509.47	21263.5	15.0169	767.945
15	39811	21341	5056.19	21931.8	13.3289	769.951
16	31623	22007.5	4603.88	22483.9	11.8156	772.087
17	25119	22566.5	4230.04	22959.5	10.6167	774.383
18	19953	23106.7	3884.12	23430.9	9.54191	776.424
19	15849	23599.1	3563.96	23866.7	8.58797	778.49
20	12589	24044.7	3289.05	24268.6	7.78908	780.491
21	10000	24409	3014.32	24594.4	7.03993	784.218
22	7943.3	24780.3	2809.58	24939.1	6.46853	786.134
23	6309.6	25117.4	2633.44	25255	5.98533	788.085
24	5011.9	25438.9	2487.08	25560.2	5.58388	790.151
25	3981.1	25738.5	2367.39	25847.2	5.25518	792.157
26	3162.3	26041.1	2270.42	26139.9	4.98279	794.223
27	2511.9	26323.9	2191.98	26415	4.76001	796.239
28	1995.3	26590.3	2132.86	26675.7	4.58599	798.27
29	1584.9	26860.2	2093.57	26941.7	4.45681	800.261
30	1258.9	27139.8	2065.56	27218.2	4.35228	802.287
31	1000	27421.2	2046.95	27497.5	4.26912	804.263
32	794.33	27694.9	2036.06	27769.7	4.20467	806.424
33	630.96	27985.1	2032.54	28058.8	4.15407	808.5
34	501.19	28273.9	2035.5	28347.1	4.11774	810.541
35	398.11	28572.5	2045.07	28645.6	4.09396	812.592
36	316.23	28863.2	2056.89	28936.4	4.0762	814.748
37	251.19	29160.6	2070.09	29234	4.06057	816.915
38	199.53	29462.3	2086.16	29536	4.05023	818.946
39	158.49	29771.8	2099.77	29845.7	4.03434	821.042
40	125.89	30088.7	2114.75	30162.9	4.02036	823.208
41	100	30390.2	2129.41	30464.7	4.00811	825.234
42	79.433	30700.7	2140.09	30775.2	3.98753	827.335
43	63.096	31018.7	2149.03	31093	3.96322	829.471
44	50.119	31350.9	2152.98	31424.8	3.92854	831.527
45	39.811	31675.1	2152.53	31748.2	3.88765	841.328
46	31.623	32005.2	2147.38	32077.1	3.8385	843.664
47	25.119	32336.3	2133.43	32406.6	3.7747	845.905
48	19.953	32670.9	2130.13	32740.2	3.73039	848.481
49	15.849	32995.4	2109.34	33062.8	3.65783	851.202
50	12.589	33302.2	2070.54	33366.5	3.55775	853.868
51	10	33602	2037.4	33663.7	3.46978	856.814
52	7.9433	33898.4	1998.3	33957.2	3.37366	859.8
53	6.3096	34187.2	1961.78	34243.5	3.28423	862.976
54	5.0119	34464.1	1916.06	34517.4	3.18212	866.037
55	3.9811	34727.3	1887.07	34778.6	3.11037	869.223
56	3.1623	34975.1	1866.64	35024.9	3.05501	872.51
57	2.5119	35185.7	1852.42	35234.4	3.01366	875.871
58	1.9953	35410.6	1868.23	35459.9	3.02007	879.217
59	1.5849	35599.1	1904.9	35650	3.06297	882.603
60	1.2589	35806.1	1983.1	35861	3.17006	886.184
61	1	36007.9	2093.5	36068.7	3.32743	892.736
62	0.79433	36185.3	2241.23	36254.6	3.54423	896.547
63	0.63096	36366.4	2427.23	36447.3	3.81848	900.683
64	0.50119	36565.5	2716.22	36666.3	4.24833	905.239
65	0.39811	36751.5	3078	36880.2	4.78744	910.23
66	0.31623	36893.9	3563.84	37065.7	5.51748	915.726
67	0.25119	37131.5	4186.96	37366.8	6.43353	922.057
68	0.19953	37392.8	4805.37	37700.3	7.32298	928.944
69	0.15849	37709.6	5724.78	38141.6	8.63229	936.915
70	0.12589	38018.9	6822.72	38626.2	10.1738	946.231
71	0.1	38222.4	8331.44	39119.8	12.2966	957.022

File: Z_p31_1.txt
Index	Frequency (Hz)	Z' (Ω)	-Z'' (Ω)	Z (Ω)	-Phase (°)	Time (s)
1	1000000	3314.83	5859.83	6732.44	60.5037	142.165
2	794330	4545.7	6115.86	7620.18	53.3779	143.82
3	630960	5937.13	6661.47	8923.27	48.2905	145.46
4	501190	7322.29	7186.12	10259.4	44.4623	147.146
5	398110	9131.44	8223.8	12288.8	42.0063	152.746
6	316230	10684.8	8532.33	13673.5	38.609	154.031
7	251190	12154.2	8612.61	14896.4	35.3218	159.516
8	199530	13779.6	8774.22	16336	32.4872	160.831
9	158490	15424.8	8753.07	17735.3	29.5735	162.201
10	125890	17015	8598.5	19064.3	26.8096	163.696
11	100000	18510.6	8297.04	20285	24.1434	165.261
12	79433	19906.4	7893.92	21414.5	21.6309	166.916
13	63096	21178.4	7403.85	22435.3	19.2694	168.441
14	50119	22330.9	6863.91	23362	17.086	169.831
15	39811	23352.3	6274.64	24180.6	15.0399	171.341
16	31623	24183.5	5649.58	24834.6	13.1492	172.691
17	25119	24891.2	5145.23	25417.4	11.6791	174.071
18	19953	25552.7	4676.68	25977.2	10.3715	175.491
19	15849	26095	4259.33	26440.3	9.27029	176.971
20	12589	26588.5	3866.95	26868.2	8.27491	178.476
21	10000	27055.6	3538.08	27285.9	7.45034	181.091
22	7943.3	27464.5	3271.53	27658.7	6.79297	182.366
23	6309.6	27850.2	3050.19	28016.7	6.2502	183.741
24	5011.9	28202.9	2867.28	28348.3	5.8051	185.121
25	3981.1	28540.7	2723.15	28670.3	5.45025	186.531
26	3162.3	28856.4	2613.4	28974.5	5.17492	188.076
27	2511.9	29157.1	2527.37	29266.5	4.95407	189.741
28	1995.3	29461.6	2468.15	29564.8	4.78877	191.146
29	1584.9	29777.1	2436.52	29876.6	4.67783	192.336
30	1258.9	30092.9	2417.55	30189.9	4.59306	193.711
31	1000	30423.1	2424.66	30519.5	4.55673	195.176
32	794.33	30742	2442.41	30838.9	4.54252	196.871
33	630.96	31052.8	2472.71	31151.1	4.55282	198.241
34	501.19	31401.6	2513.68	31502.1	4.57673	199.576
35	398.11	31742	2573.25	31846.1	4.6347	201.002
36	316.23	32111	2638.99	32219.2	4.69822	202.402
37	251.19	32480.7	2714.14	32593.9	4.77664	203.912
38	199.53	32861	2802.38	32980.3	4.87438	205.282
39	158.49	33239.8	2896.67	33365.8	4.98043	206.757
40	125.89	33642.4	3007.27	33776.5	5.10806	208.157
41	100	34061.7	3123.68	34204.6	5.23974	209.487
42	79.433	34484.4	3256.01	34637.8	5.39385	211.137
43	63.096	34945.3	3395.5	35109.9	5.54978	212.682
44	50.119	35418.7	3592.49	35600.5	5.79165	214.202
45	39.811	35912.1	3741.85	36106.5	5.94846	223.417
46	31.623	36420.2	3933.52	36632	6.16426	225.117
47	25.119	36957.9	4150.24	37190.2	6.40726	226.902
48	19.953	37540	4402.74	37797.3	6.68917	228.847
49	15.849	38132.2	4669.04	38417	6.98073	230.952
50	12.589	38760.3	4969.71	39077.6	7.3064	233.157
51	10	39424.7	5296.38	39778.9	7.6514	235.487
52	7.9433	40105.2	5668.24	40503.8	8.04458	237.837
53	6.3096	40847.3	6081.73	41297.6	8.46852	240.157
54	5.0119	41599.1	6554.58	42112.3	8.95422	242.587
55	3.9811	42395.1	7093.14	42984.4	9.4982	245.042
56	3.1623	43239.8	7706.48	43921.2	10.1055	247.587
57	2.5119	44191.2	8462.11	44994.1	10.8403	250.257
58	1.9953	45134.4	9277.21	46078	11.6151	252.982
59	1.5849	46183.4	10275.8	47312.8	12.5439	255.718
60	1.2589	47309.8	11427.7	48670.4	13.5796	258.533
61	1	48493	12806.3	50155.5	14.7932	263.623
62	0.79433	49811.3	14386.9	51847.3	16.1102	266.783
63	0.63096	51306	16197.2	53802	17.5208	270.313
64	0.50119	52771.4	18446.1	55902.4	19.2669	274.148
65	0.39811	54546.4	21071.8	58475	21.122	278.393
66	0.31623	56367	24424.2	61431.1	23.4274	283.143
67	0.25119	58971.5	28071.4	65311.9	25.4552	288.663
68	0.19953	61626.3	32707	69767.8	27.9563	295.033
69	0.15849	64582.9	37710.2	74786.5	30.2808	302.293
70	0.12589	67402.8	43892	80434.1	33.0718	310.854
71	0.1	71630.8	52018.7	88526.3	35.9873	321.219

File: Z_p31_2.txt
Index	Frequency (Hz)	Z' (Ω)	-Z'' (Ω)	Z (Ω)	-Phase (°)	Time (s)
1	1000000	3215.56	5906.73	6725.27	61.4366	467.311
2	794330	4546.42	6119.99	7623.92	53.3921	468.736
3	630960	5904.37	6707.37	8935.9	48.6432	470.141
4	501190	7349.29	7347.78	10392.4	44.9941	471.576
5	398110	9141.66	8245.94	12311.2	42.051	476.721
6	316230	10643.6	8711.8	13754.3	39.3005	478.081
7	251190	12150.5	8610.21	14892	35.3225	482.147
8	199530	13800	8769.72	16350.8	32.4354	483.522
9	158490	15408	8771.81	17729.9	29.653	484.912
10	125890	17010.2	8587.79	19055.1	26.7875	486.212
11	100000	18484.6	8306.67	20265.2	24.1984	487.637
12	79433	19897.9	7986.09	21440.8	21.8682	488.957
13	63096	21166	7409.05	22425.3	19.2924	490.337
14	50119	22326.9	6862.69	23357.8	17.086	491.757
15	39811	23343.6	6290.62	24176.3	15.0818	493.037
16	31623	24200	5679.61	24857.5	13.208	494.352
17	25119	24919.5	5169.02	25449.9	11.7186	495.672
18	19953	25568.4	4695.29	25996	10.4057	496.992
19	15849	26152	4263.78	26497.3	9.25993	498.372
20	12589	26630.5	3894.44	26913.8	8.31995	499.662
21	10000	27068.9	3545.2	27300.1	7.46153	501.872
22	7943.3	27487.4	3276.29	27682	6.79714	503.057
23	6309.6	27867.6	3054.87	28034.6	6.25583	504.377
24	5011.9	28198.6	2869.64	28344.2	5.81072	505.757
25	3981.1	28552.1	2725.48	28681.9	5.45272	507.107
26	3162.3	28851	2613.65	28969.2	5.17636	508.397
27	2511.9	29188.4	2532.35	29298	4.9585	509.697
28	1995.3	29483.1	2474.19	29586.7	4.79695	511.037
29	1584.9	29802.4	2438.73	29902	4.67809	512.347
30	1258.9	30114.5	2423.69	30211.9	4.60139	513.672
31	1000	30425.2	2426.66	30521.8	4.56015	515.002
32	794.33	30741.9	2444.87	30839	4.5471	516.347
33	630.96	31075.1	2474.66	31173.5	4.55314	517.732
34	501.19	31407.4	2517.05	31508.1	4.582	519.102
35	398.11	31763.4	2572.92	31867.4	4.631	520.317
36	316.23	32120.3	2639.9	32228.6	4.69846	521.662
37	251.19	32487	2717.15	32600.5	4.78098	523.122
38	199.53	32876.3	2805.56	32995.8	4.87763	524.412
39	158.49	33278.1	2902.45	33404.4	4.98461	525.752
40	125.89	33661.8	3010.75	33796.2	5.111	527.117
41	100	34089.6	3129.68	34232.9	5.24548	528.497
42	79.433	34514.1	3261.3	34667.9	5.39795	529.927
43	63.096	34974.9	3405.86	35140.3	5.56194	531.407
44	50.119	35421	3573.31	35600.8	5.76058	532.892
45	39.811	35938.6	3743.7	36133.1	5.94701	542.013
46	31.623	36461.9	3938.4	36674	6.16486	543.668
47	25.119	36997.3	4157.07	37230.2	6.41093	545.258
48	19.953	37554.2	4411.52	37812.4	6.69989	547.168
49	15.849	38148.7	4677.27	38434.4	6.98994	549.168
50	12.589	38772.5	4974.03	39090.2	7.3104	551.283
51	10	39444.3	5307.17	39799.8	7.66303	553.638
52	7.9433	40146.4	5674.72	40545.5	8.0455	555.938
53	6.3096	40886.4	6089.98	41337.5	8.47184	558.363
54	5.0119	41652.9	6569.32	42167.8	8.96261	560.748
55	3.9811	42425.5	7103.27	43016.1	9.50482	563.223
56	3.1623	43303.2	7735.13	43988.7	10.1278	565.678
57	2.5119	44200	8457.71	45002	10.8326	568.418
58	1.9953	45194.2	9324.31	46146	11.6575	571.013
59	1.5849	46245.9	10282.8	47375.3	12.5358	573.838
60	1.2589	47375	11429.1	48734.2	13.5633	576.798
61	1	48532.4	12806	50193.5	14.7814	581.868
62	0.79433	49907.4	14360.4	51932.3	16.0527	585.088
63	0.63096	51334.3	16303.4	53861	17.6195	588.673
64	0.50119	52958.8	18473.9	56088.5	19.2306	592.434
65	0.39811	54682	21260.7	58669.7	21.2464	596.734
66	0.31623	56657	24298	61647.5	23.2126	601.519
67	0.25119	58805.9	28395.7	65302.7	25.7746	607.089
68	0.19953	61276.1	32783.3	69494.6	28.1472	613.364
69	0.15849	64379.4	38266.3	74893.4	30.7267	620.634
70	0.12589	68145.1	44138.3	81190.8	32.9316	629.204
71	0.1	71100.6	51475.4	87778.2	35.9038	639.424