Folder: Streamlit_cement_impedance/data/20200619 (part 16)

File: Z_p52_3.txt
Index	Frequency (Hz)	Z' (Ω)	-Z'' (Ω)	Z (Ω)	-Phase (°)	Time (s)
1	1000000	2387.5	1423.7	2779.77	30.8082	702.553
2	794330	2565.11	1304.73	2877.87	26.9598	704.623
3	630960	2789.67	1207.35	3039.73	23.4026	706.708
4	501190	3007.55	1106.33	3204.58	20.1961	708.854
5	398110	3208.35	996.293	3359.49	17.2512	715.654
6	316230	3373.2	891.438	3489.01	14.8032	717.599
7	251190	3453.19	756.016	3534.98	12.3491	724.329
8	199530	3580.04	677.24	3643.54	10.7121	726.284
9	158490	3679.78	596.713	3727.84	9.21091	728.314
10	125890	3760.61	522.102	3796.68	7.9041	730.294
11	100000	3822.2	453.824	3849.05	6.77122	732.334
12	79433	3872.81	391.651	3892.57	5.7746	734.379
13	63096	3912.4	340.547	3927.19	4.97466	736.409
14	50119	3947.32	295.74	3958.38	4.2847	738.449
15	39811	3974.85	256.885	3983.14	3.69774	740.564
16	31623	3998.39	224.048	4004.67	3.20718	742.504
17	25119	4018.17	197.986	4023.04	2.82083	744.449
18	19953	4035.56	176.305	4039.41	2.50154	746.394
19	15849	4052.51	158.198	4055.6	2.23552	748.369
20	12589	4068.8	144.517	4071.37	2.03419	750.309
21	10000	4079.48	132.771	4081.64	1.8641	752.384
22	7943.3	4094.76	123.359	4096.61	1.72558	754.369
23	6309.6	4109.08	115.705	4110.71	1.61293	756.324
24	5011.9	4121.67	110.259	4123.14	1.53236	758.359
25	3981.1	4133.28	105.814	4134.64	1.46647	760.344
26	3162.3	4145.25	102.618	4146.52	1.4181	762.27
27	2511.9	4159.42	99.753	4160.61	1.37383	764.345
28	1995.3	4169.93	97.8939	4171.08	1.34484	766.305
29	1584.9	4183.42	97.0511	4184.54	1.32897	768.3
30	1258.9	4194.65	96.1123	4195.75	1.31259	770.34
31	1000	4206.93	95.8661	4208.03	1.30541	772.305
32	794.33	4220.46	96.1219	4221.55	1.3047	774.365
33	630.96	4233.86	96.7064	4234.97	1.30848	776.305
34	501.19	4246.9	98.5009	4248.04	1.32866	778.25
35	398.11	4259.45	100.578	4260.64	1.35267	780.22
36	316.23	4271.09	103.484	4272.35	1.38794	782.195
37	251.19	4285.46	108.388	4286.83	1.44882	784.18
38	199.53	4299.31	113.83	4300.82	1.51663	786.175
39	158.49	4314.59	121.455	4316.29	1.61245	788.205
40	125.89	4326.01	129.788	4327.96	1.71845	790.255
41	100	4342.89	140.834	4345.18	1.85738	792.22
42	79.433	4361.14	153.042	4363.82	2.00981	794.25
43	63.096	4375.83	167.783	4379.04	2.19583	796.345
44	50.119	4397.61	177.699	4401.2	2.31395	798.515
45	39.811	4421.17	204.351	4425.89	2.64639	808.28
46	31.623	4443.19	225.465	4448.91	2.90492	810.545
47	25.119	4469.48	252.314	4476.6	3.23107	812.97
48	19.953	4498.73	282.508	4507.6	3.5933	815.466
49	15.849	4533.31	314.685	4544.22	3.97089	818.031
50	12.589	4567.93	354.167	4581.64	4.43347	820.726
51	10	4608.83	398.905	4626.06	4.94676	823.621
52	7.9433	4649.28	450.49	4671.06	5.53437	826.586
53	6.3096	4695.23	509.531	4722.8	6.19355	829.636
54	5.0119	4742.77	577.732	4777.83	6.94517	832.691
55	3.9811	4796.25	660.794	4841.55	7.84443	835.726
56	3.1623	4856.77	759.738	4915.84	8.89065	839.006
57	2.5119	4922.24	878.751	5000.07	10.1222	842.281
58	1.9953	4988.26	1009.33	5089.35	11.4389	845.621
59	1.5849	5064.34	1167.19	5197.11	12.9785	849.061
60	1.2589	5163.22	1393.53	5347.96	15.104	852.651
61	1	5251.6	1630.63	5498.94	17.2496	858.966
62	0.79433	5363.74	1920.78	5697.29	19.7027	862.836
63	0.63096	5487.64	2287.26	5945.23	22.6265	867.041
64	0.50119	5609.55	2714.35	6231.75	25.8214	871.527
65	0.39811	5750.44	3273.88	6617.09	29.654	876.357
66	0.31623	5954.56	3916.68	7127.22	33.3353	881.927
67	0.25119	6141.83	4728.96	7751.46	37.5948	887.982
68	0.19953	6445.5	5730.98	8624.89	41.6417	894.807
69	0.15849	6722.95	6971.77	9685.23	46.0409	902.842
70	0.12589	7104.03	8431.24	11025.1	49.883	911.977
71	0.1	7510.89	10160.4	12635.1	53.5269	922.927

File: Z_p53_1.txt
Index	Frequency (Hz)	Z' (Ω)	-Z'' (Ω)	Z (Ω)	-Phase (°)	Time (s)
1	1000000	2635.65	1707.57	3140.45	32.9381	140.467
2	794330	2879.75	1583.08	3286.2	28.7989	141.987
3	630960	3168.5	1493.2	3502.72	25.2329	143.392
4	501190	3435.26	1386.54	3704.52	21.98	144.792
5	398110	3703.26	1263.23	3912.78	18.8351	149.953
6	316230	3926.92	1140.12	4089.08	16.1898	151.398
7	251190	4036.54	991.847	4156.61	13.8051	155.603
8	199530	4201.09	895.246	4295.42	12.0297	156.938
9	158490	4335.84	798.778	4408.81	10.4384	158.238
10	125890	4450.01	703.32	4505.24	8.98127	159.523
11	100000	4537.65	618.999	4579.67	7.768	161.023
12	79433	4604.99	542.388	4636.82	6.7175	162.348
13	63096	4672.58	473.056	4696.47	5.78097	163.723
14	50119	4721.31	411.504	4739.21	4.98125	165.048
15	39811	4760.22	358.845	4773.72	4.31104	166.363
16	31623	4793.87	314.239	4804.16	3.75038	167.798
17	25119	4823.51	277.678	4831.5	3.29474	169.133
18	19953	4850.8	247.125	4857.1	2.91642	170.498
19	15849	4876.39	222.135	4881.44	2.6082	171.873
20	12589	4899.04	201.53	4903.19	2.35562	173.163
21	10000	4916.64	185.963	4920.16	2.16607	174.463
22	7943.3	4937.07	170.532	4940.01	1.97827	175.813
23	6309.6	4953.9	159.344	4956.46	1.84231	177.153
24	5011.9	4974.38	150.307	4976.65	1.73073	178.483
25	3981.1	4988.54	144.188	4990.62	1.65561	179.813
26	3162.3	5002.66	138.623	5004.58	1.58725	181.168
27	2511.9	5020.4	135.697	5022.23	1.54828	182.608
28	1995.3	5035.77	132.697	5037.52	1.50945	183.998
29	1584.9	5051.9	131.926	5053.62	1.49589	185.238
30	1258.9	5067.63	130.732	5069.31	1.47776	186.498
31	1000	5085.34	132.049	5087.05	1.48744	187.853
32	794.33	5098.91	134.088	5100.68	1.50638	189.173
33	630.96	5116.08	136.206	5117.89	1.52504	190.488
34	501.19	5135.01	139.567	5136.91	1.55689	191.813
35	398.11	5152.43	144.254	5154.45	1.60371	193.008
36	316.23	5171.07	151.041	5173.28	1.67307	194.298
37	251.19	5192.31	159.102	5194.75	1.7551	195.643
38	199.53	5210.29	169.604	5213.05	1.86442	196.918
39	158.49	5231.91	182.72	5235.1	2.00019	198.253
40	125.89	5256.04	199.208	5259.81	2.17052	199.653
41	100	5279.14	215.556	5283.54	2.33818	201.018
42	79.433	5304.2	235.97	5309.44	2.54726	202.369
43	63.096	5336.98	261.681	5343.39	2.80706	203.854
44	50.119	5360.5	288.631	5368.27	3.08206	205.234
45	39.811	5402.01	317.85	5411.35	3.36735	214.309
46	31.623	5440.97	352.727	5452.4	3.70918	215.944
47	25.119	5484.04	391.057	5497.96	4.07876	217.584
48	19.953	5532.71	436.748	5549.92	4.51352	219.444
49	15.849	5588.57	483.499	5609.45	4.94467	221.474
50	12.589	5644.53	539.194	5670.23	5.45662	223.529
51	10	5709.03	600.168	5740.49	6.00124	225.844
52	7.9433	5772.02	669.597	5810.73	6.61715	228.174
53	6.3096	5849.69	748.07	5897.33	7.28755	230.474
54	5.0119	5922.91	844.75	5982.85	8.11701	232.864
55	3.9811	6001.24	950.508	6076.05	9.00004	235.359
56	3.1623	6084.87	1090.59	6181.83	10.1612	237.954
57	2.5119	6170.84	1244.09	6295	11.3985	240.494
58	1.9953	6265.42	1421.45	6424.64	12.7825	243.114
59	1.5849	6399.04	1658.8	6610.54	14.5327	245.874
60	1.2589	6468.23	1903.21	6742.42	16.396	248.704
61	1	6611.79	2270.57	6990.8	18.9531	253.759
62	0.79433	6790.49	2711.75	7311.93	21.7691	256.97
63	0.63096	6955.97	3233.39	7670.74	24.9308	260.525
64	0.50119	7138.54	3884.75	8127.12	28.5548	264.415
65	0.39811	7372.54	4661.93	8722.84	32.3067	268.67
66	0.31623	7649.28	5641.29	9504.51	36.4085	273.475
67	0.25119	7993.94	6602.17	10367.8	39.5532	278.905
68	0.19953	8436.01	8024.93	11643.3	43.5694	285.095
69	0.15849	8922.88	9765.25	13227.9	47.5809	292.32
70	0.12589	9481.99	11902.8	15217.9	51.4586	300.875
71	0.1	10314.8	14280.2	17615.8	54.1589	311.031

File: Z_p53_2.txt
Index	Frequency (Hz)	Z' (Ω)	-Z'' (Ω)	Z (Ω)	-Phase (°)	Time (s)
1	1000000	2642.77	1730.35	3158.86	33.2147	456.927
2	794330	2881.15	1585.36	3288.53	28.8219	458.317
3	630960	3175.06	1493.78	3508.9	25.1957	459.732
4	501190	3451.3	1389.73	3720.59	21.9331	461.177
5	398110	3712.54	1261.93	3921.15	18.7735	466.147
6	316230	3933.59	1159.09	4100.81	16.4184	467.447
7	251190	4044.63	992.164	4164.54	13.7827	471.607
8	199530	4214.3	895.3	4308.35	11.9938	472.857
9	158490	4351.21	801.511	4424.41	10.4371	474.157
10	125890	4462.86	706.842	4518.49	8.99993	475.427
11	100000	4551.2	619.656	4593.19	7.75326	476.852
12	79433	4623.78	542.403	4655.49	6.69063	478.137
13	63096	4682.41	474.485	4706.39	5.78623	479.427
14	50119	4733.23	412.691	4751.19	4.98302	480.807
15	39811	4773.66	359.24	4787.16	4.30366	482.097
16	31623	4808.6	315.037	4818.9	3.7484	483.453
17	25119	4836.58	277.957	4844.56	3.28915	484.748
18	19953	4865.91	248.293	4872.24	2.9211	486.018
19	15849	4888.07	223.44	4893.17	2.61725	487.323
20	12589	4909.93	200.747	4914.03	2.34129	488.608
21	10000	4930.01	185.766	4933.51	2.15792	489.903
22	7943.3	4951.47	171.15	4954.43	1.97966	491.203
23	6309.6	4968.69	158.566	4971.22	1.82786	492.508
24	5011.9	4984.81	150.757	4987.09	1.73228	493.778
25	3981.1	5003.04	144.861	5005.14	1.65852	495.163
26	3162.3	5018.98	139.417	5020.92	1.59115	496.478
27	2511.9	5037.09	136.282	5038.93	1.5498	497.858
28	1995.3	5051.01	133.493	5052.77	1.51392	499.218
29	1584.9	5067.29	132.545	5069.02	1.49835	500.543
30	1258.9	5084.27	132.551	5085.99	1.4934	501.813
31	1000	5098.27	132.862	5100	1.49281	503.133
32	794.33	5116.78	134.46	5118.55	1.50529	504.553
33	630.96	5131.99	137.053	5133.82	1.52976	505.903
34	501.19	5151.37	140.698	5153.29	1.56452	507.178
35	398.11	5168.42	145.58	5170.47	1.61344	508.463
36	316.23	5189.45	152.16	5191.68	1.67949	509.758
37	251.19	5206.98	160.623	5209.45	1.76688	511.113
38	199.53	5226.56	170.523	5229.34	1.86868	512.308
39	158.49	5249.02	184.302	5252.26	2.01092	513.663
40	125.89	5270.53	200.2	5274.34	2.17532	515.038
41	100	5295.9	218.712	5300.42	2.36487	516.398
42	79.433	5323.52	239.102	5328.88	2.57167	517.778
43	63.096	5351.53	264.192	5358.05	2.82626	519.233
44	50.119	5387.96	269.037	5394.67	2.85858	520.568
45	39.811	5420.78	321.599	5430.31	3.39522	529.653
46	31.623	5460.43	357.895	5472.14	3.74999	531.258
47	25.119	5501.78	396.701	5516.07	4.12412	532.913
48	19.953	5555.67	439.614	5573.04	4.52432	534.808
49	15.849	5609.23	489.045	5630.51	4.98278	536.739
50	12.589	5665.84	547.253	5692.21	5.51698	538.759
51	10	5729.75	604.779	5761.58	6.0253	540.999
52	7.9433	5791	668.877	5829.5	6.58863	543.324
53	6.3096	5855.96	740.99	5902.65	7.21166	545.634
54	5.0119	5926.33	832.874	5984.57	7.99984	548.154
55	3.9811	6005.19	942.758	6078.74	8.92207	550.689
56	3.1623	6081.97	1068.44	6175.11	9.96371	553.254
57	2.5119	6171.61	1221.87	6291.4	11.1988	555.749
58	1.9953	6252.07	1406.99	6408.43	12.6827	558.424
59	1.5849	6340.67	1631.82	6547.28	14.4323	561.099
60	1.2589	6451.27	1913.09	6728.95	16.5174	563.899
61	1	6591.17	2258.03	6967.22	18.9106	568.909
62	0.79433	6749.14	2679.65	7261.64	21.6548	572.029
63	0.63096	6915.34	3173.78	7608.87	24.6526	575.524
64	0.50119	7092.02	3814.35	8052.7	28.273	579.269
65	0.39811	7306.23	4577.25	8621.61	32.0666	583.474
66	0.31623	7696.7	5573.22	9502.63	35.9085	588.179
67	0.25119	8027.2	6811.42	10527.7	40.316	593.575
68	0.19953	8452.76	8184.53	11765.9	44.0763	599.84
69	0.15849	8942.3	9877.05	13323.7	47.8435	607.07
70	0.12589	9638.24	11827.9	15257.6	50.8244	615.535
71	0.1	10157.8	13989.4	17288.2	54.0163	625.805

File: Z_p53_3.txt
Index	Frequency (Hz)	Z' (Ω)	-Z'' (Ω)	Z (Ω)	-Phase (°)	Time (s)
1	1000000	2633.39	1741.8	3157.31	33.4818	772.828
2	794330	2880.68	1592.46	3291.54	28.9341	774.889
3	630960	3164.52	1488.8	3497.24	25.1954	776.925
4	501190	3443.94	1400.84	3717.93	22.1342	779.076
5	398110	3704.4	1267.45	3915.23	18.8883	787.551
6	316230	3918	1157.99	4085.54	16.4653	789.527
7	251190	4043.59	995.39	4164.3	13.8292	796.391
8	199530	4209.58	899.405	4304.59	12.0603	798.377
9	158490	4345.32	798.864	4418.14	10.4172	800.398
10	125890	4456.81	707.367	4512.6	9.01852	802.314
11	100000	4548.28	620.675	4590.43	7.7708	804.35
12	79433	4625.74	541.13	4657.28	6.67227	806.416
13	63096	4677.55	472.523	4701.36	5.76841	808.507
14	50119	4727.67	412.334	4745.62	4.98456	810.553
15	39811	4768	357.489	4781.39	4.28782	812.619
16	31623	4801.87	312.192	4812.01	3.71983	814.595
17	25119	4829.83	277.494	4837.79	3.28827	816.522
18	19953	4859.2	247.832	4865.52	2.91971	818.508
19	15849	4883.49	221.475	4888.51	2.59668	820.464
20	12589	4905.79	200.602	4909.89	2.34157	822.4
21	10000	4921.96	183.654	4925.39	2.13689	824.446
22	7943.3	4944.33	169.875	4947.25	1.96777	826.367
23	6309.6	4961.64	158.533	4964.17	1.83007	828.308
24	5011.9	4978.63	149.987	4980.89	1.72558	830.319
25	3981.1	4994.83	142.978	4996.87	1.63965	832.245
26	3162.3	5013.05	137.723	5014.94	1.57369	834.281
27	2511.9	5027.44	134.641	5029.24	1.53408	836.237
28	1995.3	5043.05	132.078	5044.78	1.50024	838.198
29	1584.9	5060.47	130.907	5062.17	1.48183	840.079
30	1258.9	5075.26	130.995	5076.95	1.47851	842.05
31	1000	5091.89	130.782	5093.57	1.47128	844.016
32	794.33	5109.13	132.421	5110.85	1.48469	846.042
33	630.96	5126.36	134.826	5128.14	1.50656	848.153
34	501.19	5142.33	137.595	5144.17	1.53272	850.134
35	398.11	5181.19	144.527	5183.21	1.59782	852.295
36	316.23	5204.18	151.882	5206.4	1.67167	854.271
37	251.19	5224.81	159.763	5227.25	1.75143	856.327
38	199.53	5241.08	170.353	5243.85	1.86165	858.278
39	158.49	5261.65	182.229	5264.8	1.98356	860.324
40	125.89	5280.51	196.732	5284.17	2.13364	862.32
41	100	5293.72	213.303	5298.02	2.30741	864.361
42	79.433	5314.61	232.985	5319.71	2.51016	866.537
43	63.096	5339.78	254.757	5345.85	2.73147	868.643
44	50.119	5370.32	259.326	5376.58	2.76459	870.67
45	39.811	5402.71	311.056	5411.65	3.29512	880.396
46	31.623	5443.63	344.712	5454.54	3.62335	882.832
47	25.119	5487.1	382.204	5500.4	3.9845	885.038
48	19.953	5536.15	426.67	5552.57	4.40706	887.574
49	15.849	5585.74	474.714	5605.87	4.85771	890.165
50	12.589	5642.17	524.746	5666.52	5.31348	892.801
51	10	5701.63	586.079	5731.67	5.8689	895.767
52	7.9433	5770.89	657.097	5808.18	6.49595	898.723
53	6.3096	5843.44	732.023	5889.12	7.14039	901.664
54	5.0119	5911.14	820.365	5967.79	7.90121	904.65
55	3.9811	5990.62	929.409	6062.28	8.8188	907.756
56	3.1623	6075.52	1062.8	6167.78	9.92245	910.927
57	2.5119	6165.15	1211.49	6283.06	11.1174	914.153
58	1.9953	6264.32	1411.73	6421.42	12.7	917.429
59	1.5849	6352.02	1622.3	6555.91	14.327	920.83
60	1.2589	6476.07	1911.49	6752.28	16.4446	924.287
61	1	6600.31	2253.9	6974.54	18.8542	930.684
62	0.79433	6752.28	2666.87	7259.86	21.552	934.49
63	0.63096	6926.63	3175.29	7619.76	24.6276	938.676
64	0.50119	7093.71	3788.41	8041.94	28.1045	943.192
65	0.39811	7315.12	4576.76	8628.89	32.0324	948.018
66	0.31623	7602.85	5479.94	9371.93	35.7831	953.604
67	0.25119	7903.44	6626.8	10314	39.9788	959.61
68	0.19953	8511.45	8179.55	11804.7	43.8608	966.421
69	0.15849	9032.34	9900.13	13401.3	47.6244	974.342
70	0.12589	9647.28	11899.8	15319.1	50.9681	983.569
71	0.1	10265.5	14311.4	17612.4	54.3484	994.41

File: Z_p54_1.txt
Index	Frequency (Hz)	Z' (Ω)	-Z'' (Ω)	Z (Ω)	-Phase (°)	Time (s)
1	1000000	2555.02	1877.09	3170.42	36.3035	67.534
2	794330	2839.17	1758.92	3339.86	31.7791	69.104
3	630960	3163.29	1677.32	3580.47	27.9346	70.6141
4	501190	3487.56	1594.31	3834.7	24.5671	72.2491
5	398110	3800.76	1481.86	4079.42	21.3001	77.3642
6	316230	4071.29	1374.36	4297	18.6534	78.7942
7	251190	4221.34	1205.84	4390.19	15.9421	82.9443
8	199530	4428.43	1100.94	4563.23	13.9612	84.2543
9	158490	4602.85	995.957	4709.37	12.2093	85.6493
10	125890	4743.76	891.602	4826.82	10.6447	87.0994
11	100000	4861.23	790.625	4925.1	9.23763	88.6244
12	79433	4960.55	699.308	5009.6	8.02433	89.9744
13	63096	5040.04	616.091	5077.55	6.96922	91.2494
14	50119	5109.05	541.224	5137.64	6.04704	92.5595
15	39811	5166.18	476.537	5188.11	5.27015	93.8895
16	31623	5211.04	418.083	5227.79	4.58703	95.3395
17	25119	5256.43	372.065	5269.58	4.04881	96.7296
18	19953	5292.51	332.725	5302.96	3.59729	98.0296
19	15849	5324.37	298.863	5332.75	3.21271	99.3296
20	12589	5354.79	269.616	5361.58	2.88243	100.635
21	10000	5383.53	247.378	5389.21	2.63094	102.055
22	7943.3	5411.34	226.787	5416.09	2.39984	103.525
23	6309.6	5434.89	211.098	5438.99	2.22432	104.955
24	5011.9	5456.12	198.146	5459.72	2.07985	106.27
25	3981.1	5480.3	187.607	5483.51	1.96064	107.56
26	3162.3	5500.06	179.319	5502.98	1.86736	108.855
27	2511.9	5521.84	172.482	5524.53	1.78913	110.25
28	1995.3	5539.77	168.083	5542.32	1.73788	111.67
29	1584.9	5562.22	164.647	5564.66	1.69552	112.975
30	1258.9	5582.18	162.878	5584.56	1.67131	114.22
31	1000	5603.36	161.611	5605.69	1.65205	115.575
32	794.33	5623.21	161.061	5625.52	1.64063	116.975
33	630.96	5644.39	162.503	5646.72	1.6491	118.38
34	501.19	5664.93	164.605	5667.32	1.66437	119.83
35	398.11	5685.33	168.616	5687.83	1.69878	121.03
36	316.23	5709.81	173.508	5712.45	1.74055	122.31
37	251.19	5734.54	180.92	5737.39	1.80704	123.7
38	199.53	5757.74	188.628	5760.83	1.87639	125.125
39	158.49	5782.24	199.7	5785.69	1.97802	126.55
40	125.89	5808.62	212.866	5812.52	2.09875	127.885
41	100	5835.23	226.777	5839.63	2.22559	129.2
42	79.433	5860.06	243.294	5865.11	2.3774	130.625
43	63.096	5893.43	262.971	5899.29	2.5549	132.11
44	50.119	5929.8	295.227	5937.14	2.85024	133.675
45	39.811	5964.34	309.748	5972.37	2.97289	143.235
46	31.623	5997.79	337.046	6007.25	3.21636	145.545
47	25.119	6038.54	369.106	6049.81	3.49785	147.43
48	19.953	6085.06	407.488	6098.69	3.8311	149.331
49	15.849	6130.4	451.978	6147.04	4.21663	151.431
50	12.589	6182.26	500.538	6202.49	4.62877	153.571
51	10	6238.95	556.34	6263.7	5.0957	155.951
52	7.9433	6296.9	621.383	6327.49	5.63574	159.051
53	6.3096	6364.9	698.201	6403.08	6.26006	161.486
54	5.0119	6433.08	791.176	6481.55	7.01134	163.816
55	3.9811	6513.08	896.496	6574.49	7.83725	166.286
56	3.1623	6603.44	1024.22	6682.39	8.81652	169.141
57	2.5119	6687.24	1174.49	6789.59	9.96134	171.801
58	1.9953	6792.75	1349.18	6925.44	11.2339	174.436
59	1.5849	6914.02	1575.06	7091.16	12.8334	177.241
60	1.2589	7023.26	1787.36	7247.12	14.2782	180.141
61	1	7175.44	2133.11	7485.79	16.5561	185.096
62	0.79433	7352.93	2493.58	7764.24	18.7332	188.336
63	0.63096	7532.67	2949.38	8089.5	21.3826	191.881
64	0.50119	7750.21	3473.85	8493.14	24.1432	195.756
65	0.39811	7987.41	4137.84	8995.57	27.3862	199.961
66	0.31623	8274.04	4901.24	9616.75	30.641	204.837
67	0.25119	8580.39	5891.21	10408.1	34.4731	210.267
68	0.19953	8924.26	6983.31	11331.8	38.0435	216.727
69	0.15849	9369.08	8392.15	12578.1	41.8517	223.972
70	0.12589	9980.53	10037.2	14154.7	45.1621	232.447
71	0.1	10447.5	11970.1	15888.1	48.8854	242.602

File: Z_p54_2.txt
Index	Frequency (Hz)	Z' (Ω)	-Z'' (Ω)	Z (Ω)	-Phase (°)	Time (s)
1	1000000	2555.98	1881.96	3174.09	36.3641	388.147
2	794330	2836.19	1760.27	3338.04	31.8256	389.537
3	630960	3164.11	1678.58	3581.79	27.9463	390.987
4	501190	3490.87	1592.11	3836.79	24.5168	392.492
5	398110	3802.51	1484.52	4082.02	21.3259	397.502
6	316230	4069.63	1368.35	4293.52	18.5844	398.797
7	251190	4221	1204.69	4389.55	15.929	402.867
8	199530	4426.85	1102.68	4562.12	13.9872	404.152
9	158490	4599.93	996.289	4706.58	12.2208	405.537
10	125890	4745.44	891.313	4828.42	10.6377	406.817
11	100000	4860.54	790.181	4924.35	9.23383	408.187
12	79433	4959.43	699.335	5008.5	8.02642	409.437
13	63096	5038.23	615.284	5075.66	6.96265	410.792
14	50119	5105.73	541.766	5134.4	6.05695	412.192
15	39811	5166.41	475.8	5188.27	5.26181	413.592
16	31623	5213.34	416.427	5229.94	4.56693	414.902
17	25119	5255.98	372.073	5269.14	4.04923	416.167
18	19953	5294.23	332.758	5304.68	3.59648	417.427
19	15849	5326.56	298.369	5334.91	3.20609	418.677
20	12589	5357.92	270.717	5364.76	2.8925	420.027
21	10000	5382.39	246.547	5388.04	2.62267	421.317
22	7943.3	5412.14	226.929	5416.89	2.40098	422.657
23	6309.6	5433.33	211.221	5437.44	2.22625	423.987
24	5011.9	5456.27	198.411	5459.87	2.08258	425.257
25	3981.1	5478.8	187.853	5482.02	1.96374	426.527
26	3162.3	5501.85	179.18	5504.77	1.8653	427.897
27	2511.9	5521.33	172.777	5524.03	1.79235	429.253
28	1995.3	5541.89	167.974	5544.44	1.73609	430.533
29	1584.9	5560.96	164.973	5563.41	1.69925	431.753
30	1258.9	5584.92	162.73	5587.29	1.66898	432.983
31	1000	5602.1	162.193	5604.44	1.65837	434.278
32	794.33	5625.3	161.932	5627.63	1.64889	435.673
33	630.96	5644.54	162.493	5646.88	1.64896	436.958
34	501.19	5669.51	165.292	5671.92	1.66996	438.313
35	398.11	5688.46	168.679	5690.96	1.69849	439.593
36	316.23	5714.33	174.27	5716.99	1.74681	440.868
37	251.19	5732.66	180.498	5735.5	1.80342	442.183
38	199.53	5759.08	189.971	5762.21	1.88929	443.393
39	158.49	5781.37	199.733	5784.82	1.97865	444.738
40	125.89	5808.7	212.228	5812.57	2.09245	446.108
41	100	5835.92	227.367	5840.35	2.23111	447.658
42	79.433	5862.29	243.121	5867.33	2.37481	449.028
43	63.096	5895.92	262.752	5901.77	2.55171	450.448
44	50.119	5931.2	269.218	5937.3	2.59888	451.838
45	39.811	5966.45	308.533	5974.42	2.96021	460.878
46	31.623	6000.6	335.754	6009.99	3.20256	462.463
47	25.119	6043.62	369.693	6054.92	3.50047	464.088
48	19.953	6085.62	407.868	6099.27	3.83432	465.928
49	15.849	6134.12	450.343	6150.63	4.1989	467.823
50	12.589	6184.49	496.788	6204.41	4.59259	469.768
51	10	6242.6	553.919	6267.12	5.0707	472.043
52	7.9433	6299.58	620.721	6330.09	5.6274	474.303
53	6.3096	6367.38	696.272	6405.33	6.24049	476.728
54	5.0119	6436.93	788.272	6485.02	6.98172	479.053
55	3.9811	6510.6	892.678	6571.51	7.80723	481.488
56	3.1623	6595.51	1016.22	6673.34	8.75913	483.964
57	2.5119	6693.39	1167.4	6794.44	9.89352	486.519
58	1.9953	6799.75	1346.33	6931.75	11.1996	489.154
59	1.5849	6918.01	1550.03	7089.53	12.629	491.889
60	1.2589	7052.75	1814.5	7282.43	14.4279	494.739
61	1	7175.91	2124.61	7483.82	16.4927	499.689
62	0.79433	7351.91	2486.88	7761.13	18.6888	502.754
63	0.63096	7539.87	2935.3	8091.09	21.2711	506.194
64	0.50119	7737.23	3450.73	8471.85	24.0364	510.019
65	0.39811	7987.49	4107.07	8981.54	27.2116	514.264
66	0.31623	8238.68	4875.43	9573.17	30.6159	518.994
67	0.25119	8619.52	5846.76	10415.4	34.1497	524.384
68	0.19953	8984.78	6997.92	11388.5	37.9137	530.644
69	0.15849	9459.11	8337.19	12608.9	41.3927	537.93
70	0.12589	9879.46	9914.66	13996.6	45.1019	546.42
71	0.1	10487.4	12082	15998.8	49.0414	556.585

File: Z_p54_3.txt
Index	Frequency (Hz)	Z' (Ω)	-Z'' (Ω)	Z (Ω)	-Phase (°)	Time (s)
1	1000000	2551.85	1887.77	3174.21	36.4928	602.744
2	794330	2840.01	1758.92	3340.58	31.7715	604.825
3	630960	3166.46	1683.31	3586.09	27.9954	606.966
4	501190	3495.95	1589.94	3840.52	24.4559	609.182
5	398110	3803.39	1483.88	4082.61	21.313	617.552
6	316230	4065.78	1374.78	4291.92	18.6821	619.638
7	251190	4224.36	1204.83	4392.81	15.9187	626.392
8	199530	4433.82	1105.33	4569.52	13.9982	628.353
9	158490	4605.83	996.239	4712.34	12.205	630.494
10	125890	4747.01	892.971	4830.26	10.6536	632.505
11	100000	4863.46	791.921	4927.51	9.24835	634.616
12	79433	4962.3	699.151	5011.31	8.01976	636.657
13	63096	5045.34	617.169	5082.94	6.97404	638.718
14	50119	5112.61	543.221	5141.39	6.06499	640.924
15	39811	5171.43	477.152	5193.4	5.27157	642.98
16	31623	5221.23	419.423	5238.05	4.59272	644.971
17	25119	5259.8	372.688	5272.99	4.05297	647.052
18	19953	5297.97	333.074	5308.43	3.59735	648.983
19	15849	5332.33	299.483	5340.74	3.21456	651.054
20	12589	5362.43	270.574	5369.26	2.88854	653.17
21	10000	5391.01	246.56	5396.64	2.61862	655.152
22	7943.3	5417.16	227.324	5421.93	2.40293	657.163
23	6309.6	5442.45	211.558	5446.56	2.22607	659.334
24	5011.9	5465.24	197.89	5468.82	2.07371	661.385
25	3981.1	5484.61	187.696	5487.82	1.96002	663.321
26	3162.3	5507.51	179.437	5510.44	1.86606	665.277
27	2511.9	5528.24	173.1	5530.95	1.79346	667.338
28	1995.3	5549.13	167.827	5551.66	1.73231	669.304
29	1584.9	5569.92	164.993	5572.36	1.69673	671.33
30	1258.9	5589.8	163.133	5592.18	1.67165	673.326
31	1000	5610.85	161.779	5613.19	1.65157	675.307
32	794.33	5632.03	162.352	5634.37	1.65118	677.373
33	630.96	5654.17	162.944	5656.52	1.65071	679.379
34	501.19	5676.44	166.271	5678.87	1.6778	681.425
35	398.11	5696.42	169.294	5698.93	1.70229	683.356
36	316.23	5718.46	175.213	5721.15	1.75499	685.492
37	251.19	5742.94	181.735	5745.81	1.81252	687.578
38	199.53	5763.84	190.011	5766.98	1.88813	689.529
39	158.49	5789.85	200.912	5793.34	1.98741	691.565
40	125.89	5817.22	212.541	5821.1	2.09246	693.671
41	100	5843.06	228.601	5847.53	2.24047	695.692
42	79.433	5873.08	244.29	5878.16	2.38184	697.828
43	63.096	5902.05	263.202	5907.92	2.55341	699.949
44	50.119	5922.25	289.664	5929.33	2.80017	702.13
45	39.811	5971.99	310.743	5980.06	2.97861	712.017
46	31.623	6010.67	340.192	6020.29	3.23937	714.288
47	25.119	6050.52	372.132	6061.96	3.51949	716.664
48	19.953	6097.06	412.214	6110.98	3.8678	719.165
49	15.849	6145.38	452.232	6162	4.20875	721.801
50	12.589	6198.08	502.454	6218.42	4.63461	724.647
51	10	6250.02	559.278	6274.99	5.11346	727.633
52	7.9433	6310.67	624.344	6341.48	5.65015	730.579
53	6.3096	6375.01	701.336	6413.47	6.27805	733.535
54	5.0119	6451.07	792.689	6499.59	7.00522	736.536
55	3.9811	6524.68	899.85	6586.44	7.8524	739.767
56	3.1623	6614.33	1022.79	6692.95	8.79016	743.018
57	2.5119	6703.02	1179.17	6805.95	9.97718	746.444
58	1.9953	6811.78	1361.19	6946.46	11.3005	749.9
59	1.5849	6928.64	1572.37	7104.81	12.786	753.336
60	1.2589	7045	1818.92	7276.02	14.4768	756.927
61	1	7197	2139.93	7508.41	16.5591	763.63
62	0.79433	7364.11	2502.54	7777.71	18.7693	767.451
63	0.63096	7567.28	2948.65	8121.47	21.2888	771.577
64	0.50119	7746.76	3480.35	8492.65	24.1928	776.078
65	0.39811	7979.84	4147.12	8993.14	27.4609	781.049
66	0.31623	8270.27	4899.18	9612.46	30.6418	786.51
67	0.25119	8574.01	5878.66	10395.8	34.436	792.541
68	0.19953	9034.97	6981.43	11418	37.6937	799.427
69	0.15849	9484.28	8397.25	12667.5	41.5212	807.418
70	0.12589	10027.1	10048.9	14195.9	45.062	816.73
71	0.1	10525.1	11957.5	15929.8	48.6456	827.506