Folder: Streamlit_cement_impedance/data/20210121 (part 3)

File: Z_p31_1.txt
Index	Frequency (Hz)	Z' (Ω)	-Z'' (Ω)	Z (Ω)	-Phase (°)	Time (s)
1	1000000	3044.18	7400.27	8001.94	67.6397	25.1733
2	794330	4870.43	8077.17	9431.96	58.9106	27.4383
3	630960	6649.95	9047.7	11228.7	53.6846	30.2534
4	501190	8664.12	10186.3	13372.6	49.6165	32.2784
5	398110	11299	12095.1	16551.7	46.9489	40.5985
6	316230	13766.8	12698	18728.7	42.6875	42.2086
7	251190	15849.9	13113.3	20571.3	39.6023	48.5237
8	199530	18326.5	13516.8	22772.1	36.4108	50.3737
9	158490	20861.1	13684.1	24948.7	33.2633	52.1438
10	125890	23348.4	13619.9	27030.5	30.2564	56.0088
11	100000	25738.9	13331.5	28986.6	27.382	58.1039
12	79433	28060.1	12895.7	30881.5	24.6824	59.7239
13	63096	30178.6	12227.9	32561.7	22.057	61.5689
14	50119	32129.3	11496.9	34124.3	19.6888	63.574
15	39811	33945.2	10619.9	35567.7	17.3724	65.514
16	31623	35473.6	9639.4	36759.9	15.2022	67.289
17	25119	36809.3	8833.24	37854.3	13.4943	69.1591
18	19953	37894.3	8052.45	38740.4	11.9968	70.9791
19	15849	38947.8	7291.87	39624.6	10.6042	72.6041
20	12589	39806.1	6613.81	40351.8	9.43355	74.1892
21	10000	40621.8	6000.59	41062.6	8.40288	77.0192
22	7943.3	41316.6	5501.92	41681.4	7.58516	78.4792
23	6309.6	41944.6	5079.01	42251	6.90425	80.2393
24	5011.9	42523.5	4723.65	42785	6.33862	81.9693
25	3981.1	43076.3	4431.14	43303.7	5.87319	84.0593
26	3162.3	43573.7	4197.71	43775.5	5.50265	85.9644
27	2511.9	44073.5	4009.48	44255.5	5.19803	87.6444
28	1995.3	44572.5	3867.9	44740	4.95957	90.3995
29	1584.9	45030.8	3762.6	45187.7	4.77632	112.465
30	1258.9	45525.4	3688.74	45674.6	4.63233	114.1
31	1000	45972	3647.07	46116.4	4.53591	116.995
32	794.33	46458.9	3627.85	46600.4	4.465	118.765
33	630.96	46966.5	3626.85	47106.4	4.41573	120.34
34	501.19	47465.3	3644.59	47605.1	4.3908	122.055
35	398.11	47967.2	3674.66	48107.8	4.38075	123.655
36	316.23	48483.6	3718.37	48626	4.38562	125.23
37	251.19	49001.3	3770.76	49146.2	4.40036	126.895
38	199.53	49536.8	3831.41	49684.8	4.42272	128.505
39	158.49	50087.5	3905.02	50239.5	4.45799	130.36
40	125.89	50623.5	3984.29	50780.1	4.50015	133.825
41	100	51167.4	4069.89	51329	4.54777	137.45
42	79.433	51733.6	4165.6	51901	4.60354	139.3
43	63.096	52307.6	4289.62	52483.2	4.6882	141.115
44	50.119	52951.4	4423.95	53135.9	4.77582	142.88
45	39.811	53533.6	4531.16	53725	4.83806	152.266
46	31.623	54170.7	4675.97	54372.1	4.9335	154.071
47	25.119	54813.8	4837.67	55026.9	5.04365	156.081
48	19.953	55492.2	5046.04	55721.2	5.19575	158.291
49	15.849	56199	5258.68	56444.5	5.34574	160.541
50	12.589	56906.6	5490.77	57170.9	5.51126	162.896
51	10	57634.2	5762.64	57921.6	5.70983	165.646
52	7.9433	58426.4	6065.69	58740.4	5.92708	168.526
53	6.3096	59195.4	6424.33	59543	6.19393	171.191
54	5.0119	59985.3	6823.79	60372.2	6.48994	174.191
55	3.9811	60863.6	7295.01	61299.2	6.83477	176.981
56	3.1623	61738.3	7834.17	62233.3	7.2318	180.016
57	2.5119	62651.6	8494.15	63224.8	7.72094	183.111
58	1.9953	63664.6	9228.24	64330	8.24763	185.946
59	1.5849	64739	10198.5	65537.3	8.95239	188.846
60	1.2589	65796.9	11216.9	66746.2	9.67462	191.901
61	1	67463.4	12592	68628.4	10.5725	197.621
62	0.79433	68843.3	14079.3	70268.3	11.5583	201.502
63	0.63096	69829.4	15694	71571.3	12.6666	205.917
64	0.50119	71810.6	18027.6	74038.9	14.0925	210.547
65	0.39811	73423.1	20507.2	76233.2	15.6052	216.072
66	0.31623	75387	23425.9	78942.9	17.2622	221.517
67	0.25119	77507.7	27330.8	82185.2	19.4237	227.357
68	0.19953	79941.3	30976.8	85733.1	21.181	234.312
69	0.15849	83455.4	36286.8	91002.9	23.4996	242.252
70	0.12589	85966.9	42144.1	95741.5	26.1158	252.202
71	0.1	89271.3	48976.2	101824	28.7502	266.353

File: Z_p32_1.txt
Index	Frequency (Hz)	Z' (Ω)	-Z'' (Ω)	Z (Ω)	-Phase (°)	Time (s)
1	1000000	2974.51	8610.4	9109.71	70.9423	37.1985
2	794330	5138.98	9447.08	10754.4	61.4549	40.0435
3	630960	7363.13	10954.8	13199.4	56.0936	43.5086
4	501190	9826.14	12517.5	15913.5	51.8683	46.4937
5	398110	12727.1	15362.8	19949.8	50.3604	56.0738
6	316230	15428.9	16732.8	22760.4	47.3218	58.0589
7	251190	18316.3	17631.3	25423.4	43.9082	64.579
8	199530	21517.9	18692	28502.8	40.9799	66.649
9	158490	24870.5	19509.7	31609.6	38.1125	68.9241
10	125890	28360.3	20118.3	34771.4	35.3511	70.7791
11	100000	31848.6	20405.4	37824.8	32.6477	72.4991
12	79433	35426.4	20503.6	40932	30.0608	74.4742
13	63096	38868.4	20389.1	43891.6	27.68	76.8392
14	50119	42445.7	20050.3	46943	25.2849	80.6043
15	39811	45925.5	19222.2	49786	22.7118	82.8493
16	31623	49052.4	17999.5	52250.6	20.1503	85.1544
17	25119	51804.6	16992.4	54520.2	18.16	87.3444
18	19953	54292.8	16018.8	56606.6	16.4384	89.1844
19	15849	56625	14818.7	58531.9	14.6654	91.4695
20	12589	58681.7	13522.5	60219.6	12.9766	93.4545
21	10000	60669	12489	61941.1	11.6321	96.8196
22	7943.3	62293.8	11444.6	63336.4	10.4103	98.6796
23	6309.6	63748.1	10477.7	64603.4	9.33374	100.465
24	5011.9	65055	9611.53	65761.2	8.40435	102.985
25	3981.1	66172.5	8855.18	66762.4	7.62202	104.92
26	3162.3	67245.3	8205.64	67744.1	6.95715	106.85
27	2511.9	68165.3	7645.26	68592.7	6.39942	108.68
28	1995.3	69095	7177.67	69466.8	5.93068	110.47
29	1584.9	69951.5	6792.63	70280.5	5.54631	112.4
30	1258.9	70768.1	6482.6	71064.4	5.23388	114.565
31	1000	71581.5	6237.71	71852.8	4.98025	116.835
32	794.33	72366.6	6041.39	72618.3	4.77217	118.895
33	630.96	73142.4	5899.48	73380	4.61135	120.995
34	501.19	73925.8	5794.18	74152.6	4.48158	123
35	398.11	74654.9	5728.96	74874.4	4.38824	125.31
36	316.23	75409.3	5694.71	75624.1	4.31862	127.295
37	251.19	76192.1	5691.49	76404.4	4.27202	129.135
38	199.53	76966.8	5709.22	77178.2	4.2423	131.095
39	158.49	77713.1	5760.21	77926.3	4.2391	133.47
40	125.89	78511	5804.26	78725.2	4.22815	135.59
41	100	79340.3	5886.72	79558.4	4.24333	137.615
42	79.433	80120.8	5991.61	80344.6	4.27674	139.59
43	63.096	80898.5	6149.87	81131.9	4.34724	142.025
44	50.119	81742.7	6210.91	81978.3	4.34505	144.13
45	39.811	82609.2	6468.38	82862.1	4.47718	159.491
46	31.623	83485	6679.93	83751.9	4.57469	164.656
47	25.119	84348.7	6958.64	84635.2	4.71614	167.746
48	19.953	85270.3	7296.88	85581.9	4.89109	170.376
49	15.849	86196	7695.72	86538.9	5.10193	173.101
50	12.589	87161.5	8114.39	87538.4	5.31868	176.096
51	10	88188.6	8657.35	88612.5	5.60668	179.456
52	7.9433	89208.4	9269.8	89688.8	5.93241	182.251
53	6.3096	90329	10008.5	90881.8	6.32263	185.176
54	5.0119	91482.7	10866.5	92125.8	6.77395	188.106
55	3.9811	92704.5	11905.2	93465.9	7.31791	191.131
56	3.1623	94015.5	13171.6	94933.6	7.97524	194.541
57	2.5119	95406.7	14600.2	96517.4	8.70053	197.766
58	1.9953	96827.5	16372	98201.8	9.59702	200.997
59	1.5849	98537.7	18537.8	100266	10.6544	204.647
60	1.2589	100370	20932.7	102530	11.7805	208.197
61	1	102412	23947.1	105175	13.161	214.507
62	0.79433	104867	27452.9	108401	14.6701	217.997
63	0.63096	107481	31685.8	112054	16.4257	222.342
64	0.50119	110395	36264.1	116199	18.1851	226.767
65	0.39811	113684	42262.6	121286	20.3929	231.607
66	0.31623	117850	48813.7	127560	22.4994	237.092
67	0.25119	122282	56634.4	134760	24.8511	243.572
68	0.19953	128282	66777.9	144622	27.4996	250.612
69	0.15849	134255	77583.2	155060	30.0227	258.578
70	0.12589	142177	90326.4	168443	32.4282	267.673
71	0.1	150336	104005	182805	34.6761	282.678

File: Z_p33_1.txt
Index	Frequency (Hz)	Z' (Ω)	-Z'' (Ω)	Z (Ω)	-Phase (°)	Time (s)
1	1000000	3658.91	4160.9	5540.82	48.673	30.1434
2	794330	4514.42	3992.26	6026.45	41.4875	32.4884
3	630960	5408.6	3983.8	6717.41	36.3742	35.5735
4	501190	6281.35	3942.6	7416.16	32.1151	38.0685
5	398110	7327	3847.79	8275.9	27.7063	45.9237
6	316230	8079.16	3623.57	8854.55	24.1566	47.8687
7	251190	8558.13	3286.26	9167.4	21.0064	54.7188
8	199530	9135.59	3043.68	9629.28	18.4264	57.9939
9	158490	9629.46	2774.99	10021.3	16.0758	60.799
10	125890	10044.3	2495.74	10349.7	13.9539	63.384
11	100000	10385	2223.24	10620.3	12.0837	65.779
12	79433	10675.4	1968.43	10855.4	10.4473	68.2541
13	63096	10915.2	1731.85	11051.8	9.01563	70.6891
14	50119	11118.4	1518.64	11221.6	7.7778	72.8142
15	39811	11274.4	1320.13	11351.4	6.67842	75.4942
16	31623	11405.5	1147.98	11463.1	5.74757	77.7093
17	25119	11506.3	1008.61	11550.4	5.00962	79.8893
18	19953	11609.9	889.549	11643.9	4.38143	82.2744
19	15849	11691.9	789.016	11718.5	3.8607	84.4344
20	12589	11771.1	701.357	11792	3.40983	86.5844
21	10000	11842.2	618.032	11858.3	2.9875	90.2095
22	7943.3	11908.1	558.883	11921.2	2.68709	92.4345
23	6309.6	11965.8	508.362	11976.6	2.43272	94.2296
24	5011.9	12020.3	464.973	12029.2	2.21524	96.3196
25	3981.1	12071.1	427.399	12078.6	2.02782	98.0746
26	3162.3	12117.7	396.031	12124.1	1.87188	99.7697
27	2511.9	12170.3	369.893	12175.9	1.74086	101.695
28	1995.3	12202.8	345.915	12207.7	1.62375	103.775
29	1584.9	12249.7	325.331	12254	1.52132	105.525
30	1258.9	12288.7	307.733	12292.5	1.4345	107.335
31	1000	12324.6	291.384	12328	1.35437	109.1
32	794.33	12361	276.774	12364.1	1.28269	110.865
33	630.96	12398	263.916	12400.9	1.21947	112.545
34	501.19	12430.6	253.191	12433.1	1.16686	115.005
35	398.11	12464.9	243.608	12467.3	1.11962	117
36	316.23	12499.8	234.929	12502	1.07672	118.925
37	251.19	12522.3	228.07	12524.4	1.04342	120.705
38	199.53	12560.4	224.311	12562.4	1.02312	122.45
39	158.49	12584	220.772	12585.9	1.00509	124.94
40	125.89	12612.2	218.816	12614.1	0.993953	127.28
41	100	12642.1	218.638	12643.9	0.990805	128.915
42	79.433	12668	219.102	12669.9	0.990871	130.585
43	63.096	12690.7	221.797	12692.7	1.00126	132.38
44	50.119	12587.9	180.079	12589.2	0.819605	160.616
45	39.811	12723.7	229.271	12725.8	1.03231	170.236
46	31.623	12740.8	242.052	12743.1	1.08838	172.321
47	25.119	12769.6	256.418	12772.2	1.15036	174.246
48	19.953	12799.7	267.768	12802.5	1.19844	176.701
49	15.849	12831.1	289.696	12834.4	1.29338	178.901
50	12.589	12862.6	312.704	12866.4	1.39265	181.331
51	10	12881	342.029	12885.5	1.52102	184.476
52	7.9433	12917.6	375.846	12923.1	1.66659	187.636
53	6.3096	12954	410.842	12960.5	1.81655	190.686
54	5.0119	12994.7	466.922	13003.1	2.05784	194.496
55	3.9811	13032.5	526.642	13043.2	2.31405	197.581
56	3.1623	13081.1	602.509	13095	2.63715	200.087
57	2.5119	13096.4	691.018	13114.6	3.02035	203.747
58	1.9953	13195	916.012	13226.8	3.97116	207.087
59	1.5849	13272.3	1000.66	13310	4.31161	212.037
60	1.2589	13321.8	1073.5	13365	4.60704	215.442
61	1	13411.5	1307.42	13475.1	5.56789	223.497
62	0.79433	13520.3	1540.81	13607.8	6.50155	227.007
63	0.63096	13619.4	1828.23	13741.6	7.64548	231.037
64	0.50119	13719.6	2159.16	13888.5	8.94371	236.057
65	0.39811	13882.4	2591.57	14122.2	10.5743	240.797
66	0.31623	14022.4	3037.38	14347.6	12.222	250.882
67	0.25119	14157.1	3689.92	14630	14.6087	256.718
68	0.19953	14485.7	4492.48	15166.4	17.2303	263.833
69	0.15849	14623.1	5325.68	15562.7	20.0115	272.608
70	0.12589	14899.1	6404.03	16217.1	23.2593	282.098
71	0.1	15384.9	7867.2	17279.7	27.0833	292.523

File: Z_p34_1.txt
Index	Frequency (Hz)	Z' (Ω)	-Z'' (Ω)	Z (Ω)	-Phase (°)	Time (s)
1	1000000	3967.23	4668.55	6126.52	49.6429	27.4473
2	794330	4939.12	4471.86	6662.76	42.1576	31.4974
3	630960	5953.71	4441.16	7427.69	36.7211	33.7874
4	501190	6940.39	4411.02	8223.51	32.4383	35.9075
5	398110	8140.29	4365.76	9237.11	28.2053	42.2726
6	316230	8975.07	4131.64	9880.4	24.7188	43.8376
7	251190	9549.91	3790.11	10274.5	21.6468	51.5727
8	199530	10221	3540.33	10816.8	19.105	53.5928
9	158490	10805.7	3253.63	11284.9	16.7572	55.6378
10	125890	11306.4	2952.47	11685.5	14.6351	57.6229
11	100000	11714.1	2648.19	12009.7	12.7386	59.5379
12	79433	12069	2360.34	12297.7	11.0656	61.2129
13	63096	12373.1	2088.37	12548.1	9.58027	62.773
14	50119	12610.7	1837.09	12743.8	8.28838	64.673
15	39811	12827	1617.25	12928.5	7.18607	66.503
16	31623	12990.6	1412.26	13067.2	6.20449	68.1181
17	25119	13133.6	1241.16	13192.1	5.39856	71.7931
18	19953	13263.4	1104.02	13309.3	4.7582	73.5732
19	15849	13370.9	978.908	13406.7	4.18725	75.0482
20	12589	13463.1	870.378	13491.2	3.69899	76.7482
21	10000	13561	770.035	13582.9	3.24993	80.2283
22	7943.3	13643.5	695.111	13661.2	2.91659	81.8283
23	6309.6	13717.6	631.316	13732.1	2.63504	83.5233
24	5011.9	13786.9	576.067	13798.9	2.39263	85.6134
25	3981.1	13854.4	528.424	13864.5	2.18427	87.2234
26	3162.3	13909.7	487.68	13918.3	2.00799	89.0184
27	2511.9	13961.5	451.629	13968.8	1.85277	90.8185
28	1995.3	14018.9	421.449	14025.2	1.72196	92.5685
29	1584.9	14067.5	394.83	14073	1.60769	94.2885
30	1258.9	14117.5	370.807	14122.4	1.50457	95.9486
31	1000	14165.1	349.04	14169.4	1.41153	97.5536
32	794.33	14209.6	329.761	14213.4	1.32942	99.2586
33	630.96	14248	312.118	14251.4	1.25493	100.689
34	501.19	14285.8	297.43	14288.9	1.19273	102.344
35	398.11	14330.7	284.05	14333.5	1.13551	103.964
36	316.23	14366.5	272.492	14369	1.08661	105.454
37	251.19	14399.6	262.255	14402	1.04339	106.934
38	199.53	14438.9	254.234	14441.2	1.00873	108.414
39	158.49	14473.4	248.883	14475.5	0.985154	110.124
40	125.89	14492.1	244.042	14494.2	0.964747	111.899
41	100	14525.1	241.573	14527.1	0.95282	113.704
42	79.433	14548.2	239.467	14550.1	0.943022	115.684
43	63.096	14583.6	241.217	14585.6	0.947598	117.484
44	50.119	14519.3	262.238	14521.7	1.03472	145.414
45	39.811	14599.2	242.752	14601.2	0.952613	155.04
46	31.623	14636.6	258.145	14638.9	1.01042	158.07
47	25.119	14661.7	268.022	14664.1	1.04728	160.025
48	19.953	14683	284.428	14685.8	1.10975	161.99
49	15.849	14718.2	312.521	14721.5	1.21642	165.47
50	12.589	14740.7	326.534	14744.3	1.269	167.47
51	10	14777.1	364.42	14781.6	1.41269	170.075
52	7.9433	14800.3	404.126	14805.9	1.56408	172.715
53	6.3096	14848.3	457.049	14855.4	1.76307	175.315
54	5.0119	14888.4	508.857	14897.1	1.9575	177.75
55	3.9811	14937	578.539	14948.2	2.21807	180.31
56	3.1623	14974.6	671.756	14989.7	2.56854	182.955
57	2.5119	15067.8	806.936	15089.4	3.06546	185.65
58	1.9953	15135.3	865.328	15160	3.2722	188.46
59	1.5849	15151.2	1335.98	15210	5.03913	191.375
60	1.2589	15199.8	1204.4	15247.4	4.53056	194.455
61	1	15333.4	1471.57	15403.8	5.48198	199.79
62	0.79433	15456.5	1752.39	15555.6	6.46831	203.206
63	0.63096	15556.8	2052.6	15691.6	7.51634	206.696
64	0.50119	15700.6	2448.01	15890.3	8.86211	213.276
65	0.39811	15848.7	2945.21	16120	10.5274	220.026
66	0.31623	16044.8	3537.96	16430.2	12.435	227.061
67	0.25119	16193.4	4296.16	16753.6	14.8585	232.946
68	0.19953	16481	5217.08	17287	17.5653	240.776
69	0.15849	16765.2	6244.84	17890.5	20.4297	251.121
70	0.12589	17230.7	7537.36	18807.1	23.6264	260.047
71	0.1	17815.6	8997.28	19958.6	26.7948	271.007

File: Z_p35_1.txt
Index	Frequency (Hz)	Z' (Ω)	-Z'' (Ω)	Z (Ω)	-Phase (°)	Time (s)
1	1000000	3362.11	3399.27	4781.09	45.3149	21.0812
2	794330	4014.92	3247.51	5163.9	38.9681	22.8562
3	630960	4701	3203.5	5688.74	34.2725	24.7512
4	501190	5415.85	3132.55	6256.54	30.0453	26.6963
5	398110	6165.24	3040.46	6874.19	26.2508	34.3564
6	316230	6733.47	2832.58	7305.01	22.8151	35.9665
7	251190	7115.22	2574.34	7566.61	19.8905	42.6266
8	199530	7567.87	2376.39	7932.21	17.4328	44.5216
9	158490	7953.42	2155.84	8240.42	15.1661	46.2216
10	125890	8279.19	1931.78	8501.58	13.1338	48.2867
11	100000	8536.3	1710.39	8705.97	11.3302	50.9617
12	79433	8756.41	1503.43	8884.54	9.74236	52.7068
13	63096	8930.6	1314.85	9026.87	8.37545	54.3668
14	50119	9085.61	1135.73	9156.32	7.12522	56.4068
15	39811	9205.59	991.257	9258.8	6.14593	59.9419
16	31623	9291.48	856.569	9330.87	5.26714	61.6019
17	25119	9365.58	747.636	9395.37	4.56413	63.122
18	19953	9443.15	657.251	9465.99	3.98142	64.732
19	15849	9500.38	576.669	9517.86	3.47357	67.352
20	12589	9554.97	511.68	9568.66	3.06533	69.1021
21	10000	9605.47	457.503	9616.36	2.7269	70.9371
22	7943.3	9640.36	408.901	9649.02	2.42878	74.7172
23	6309.6	9678.61	371.382	9685.73	2.19745	80.0423
24	5011.9	9718.96	339.61	9724.89	2.00127	82.0073
25	3981.1	9751.41	312.238	9756.41	1.83397	83.8423
26	3162.3	9786.01	289.396	9790.29	1.69388	86.0724
27	2511.9	9817.7	271.644	9821.46	1.5849	88.0824
28	1995.3	9864.43	255.164	9867.73	1.48174	91.5925
29	1584.9	9894.51	241.305	9897.46	1.39704	93.2425
30	1258.9	9906.81	230.45	9909.49	1.33256	97.9976
31	1000	9934.09	218.137	9936.49	1.25792	99.4626
32	794.33	9958.33	208.296	9960.51	1.19827	101.153
33	630.96	9983.58	201.257	9985.6	1.15486	102.878
34	501.19	10014.3	193.136	10016.1	1.10487	104.463
35	398.11	10036.2	185.182	10037.9	1.05706	105.923
36	316.23	10068.8	179.6	10070.4	1.02189	107.493
37	251.19	10085.6	176.588	10087.1	1.00309	109.408
38	199.53	10108.9	171.041	10110.3	0.969345	111.143
39	158.49	10137.3	168.113	10138.6	0.95009	112.958
40	125.89	10153.6	167.235	10154.9	0.943607	114.723
41	100	10179	169.504	10180.4	0.954021	116.283
42	79.433	10195.3	168.506	10196.7	0.94689	117.983
43	63.096	10218.5	166.413	10219.8	0.933006	119.438
44	50.119	10267.3	173.71	10268.8	0.969277	121.133
45	39.811	10327.6	178.958	10329.1	0.99273	130.513
46	31.623	10343.8	184.964	10345.5	1.02443	132.408
47	25.119	10365.6	194.537	10367.4	1.07517	134.403
48	19.953	10389.3	208.148	10391.4	1.14776	136.678
49	15.849	10414.6	225.31	10417	1.23935	138.878
50	12.589	10440.7	244.326	10443.5	1.34055	141.383
51	10	10453.5	265.283	10456.9	1.4537	144.313
52	7.9433	10485	299.955	10489.3	1.63867	146.899
53	6.3096	10508.7	326.97	10513.8	1.78214	149.379
54	5.0119	10540.4	361.963	10546.6	1.9668	152.044
55	3.9811	10571.3	411.6	10579.3	2.22972	154.729
56	3.1623	10613.8	480.889	10624.7	2.59418	157.579
57	2.5119	10666.8	531.602	10680	2.85309	160.664
58	1.9953	10726.6	665.924	10747.2	3.55246	163.729
59	1.5849	10805.6	701.884	10828.4	3.71646	166.869
60	1.2589	10794.4	770.845	10821.8	4.08466	169.934
61	1	10890.1	1012.58	10937.1	5.3122	175.429
62	0.79433	10982.5	1189.57	11046.7	6.18192	178.764
63	0.63096	11079.4	1382.27	11165.3	7.11149	182.454
64	0.50119	11182.6	1638.08	11301.9	8.33374	186.734
65	0.39811	11267.9	1930.06	11432	9.71979	191.419
66	0.31623	11392.2	2317.54	11625.5	11.4989	196.349
67	0.25119	11589.6	2766.26	11915.2	13.4244	202.235
68	0.19953	11706.5	3286.46	12159	15.6815	208.88
69	0.15849	11875.2	3914.11	12503.6	18.2424	216.585
70	0.12589	12142.4	4740.54	13035	21.3263	225.525
71	0.1	12423	5555.05	13608.4	24.0923	235.975

File: Z_p36_1.txt
Index	Frequency (Hz)	Z' (Ω)	-Z'' (Ω)	Z (Ω)	-Phase (°)	Time (s)
1	1000000	4027.44	3971.35	5656.14	44.5982	20.6492
2	794330	4793.97	3675.45	6040.79	37.4767	22.4192
3	630960	5597.91	3550.48	6628.91	32.385	24.5242
4	501190	6359.19	3392.56	7207.55	28.0795	26.3093
5	398110	7238.73	3250.93	7935.22	24.185	31.3044
6	316230	7863.05	3048.96	8433.48	21.1942	32.9994
7	251190	8208.69	2690.15	8638.26	18.145	38.7095
8	199530	8679.55	2469.97	9024.15	15.885	41.1846
9	158490	9062.72	2230.32	9333.12	13.8256	43.3946
10	125890	9389.82	1991.67	9598.72	11.9755	45.5546
11	100000	9652.68	1761.53	9812.1	10.3422	47.2597
12	79433	9877.31	1549.83	9998.16	8.91744	49.0147
13	63096	10054	1356.42	10145.1	7.68361	50.6547
14	50119	10204.5	1180.21	10272.6	6.59726	52.4598
15	39811	10332	1024.01	10382.6	5.66014	54.2598
16	31623	10424.6	886.042	10462.2	4.85818	56.0198
17	25119	10505.7	777.094	10534.4	4.2304	57.6649
18	19953	10577.3	686.106	10599.5	3.71134	59.4799
19	15849	10646.3	606.678	10663.6	3.26145	61.2899
20	12589	10702.6	538.559	10716.2	2.88071	63.005
21	10000	10753.8	473.744	10764.2	2.52247	66.79
22	7943.3	10799	433.707	10807.7	2.29986	72.5001
23	6309.6	10838.8	393.356	10845.9	2.07844	74.2052
24	5011.9	10884.7	360.174	10890.7	1.89522	75.9552
25	3981.1	10919.1	332.152	10924.2	1.74236	77.7352
26	3162.3	10951.5	310.315	10955.8	1.62307	79.4353
27	2511.9	10984	288.896	10987.8	1.50662	81.0853
28	1995.3	11017.9	271.346	11021.3	1.41078	82.6053
29	1584.9	11051.2	257.258	11054.2	1.33354	84.2654
30	1258.9	11084.3	241.854	11086.9	1.24997	85.7704
31	1000	11109.5	229.546	11111.9	1.18369	87.5654
32	794.33	11147.1	219.109	11149.3	1.12607	89.8155
33	630.96	11171.6	210.568	11173.6	1.07981	91.7155
34	501.19	11199.2	201.676	11201	1.03168	93.4705
35	398.11	11228.6	191.448	11230.2	0.976799	95.1306
36	316.23	11248.4	186.89	11249.9	0.951874	97.2556
37	251.19	11274.2	181.016	11275.6	0.91985	99.2706
38	199.53	11301.7	178.363	11303.1	0.904164	101.786
39	158.49	11323.1	176.245	11324.5	0.891743	103.871
40	125.89	11339.7	173.871	11341	0.878448	107.701
41	100	11364.2	176.777	11365.6	0.891198	110.236
42	79.433	11389.8	180.967	11391.3	0.910265	112.041
43	63.096	11403.4	186.641	11404.9	0.937683	114.461
44	50.119	11481.2	185.548	11482.7	0.925873	117.006
45	39.811	11449	194.254	11450.6	0.972044	126.911
46	31.623	11461.9	214.661	11463.9	1.07292	131.091
47	25.119	11492.4	222.998	11494.6	1.11163	133.106
48	19.953	11509.2	250.523	11511.9	1.24697	135.696
49	15.849	11553	274.687	11556.3	1.36202	138.231
50	12.589	11564.6	305.646	11568.7	1.51394	140.656
51	10	11600	331.939	11604.8	1.63909	143.056
52	7.9433	11630.2	368.53	11636	1.81494	145.661
53	6.3096	11658.9	426.649	11666.7	2.09577	148.162
54	5.0119	11688.3	484.517	11698.4	2.37373	150.697
55	3.9811	11729.4	554.499	11742.5	2.70661	153.392
56	3.1623	11773.7	643.065	11791.3	3.12631	156.137
57	2.5119	11809	742.065	11832.3	3.59569	158.907
58	1.9953	11847.9	905.134	11882.5	4.36868	161.722
59	1.5849	11894.1	1026.8	11938.4	4.93402	164.562
60	1.2589	11995.6	1194.55	12054.9	5.68692	167.522
61	1	12098	1460.84	12185.8	6.88519	175.297
62	0.79433	12197.2	1744.49	12321.3	8.13947	178.962
63	0.63096	12310.8	2062.32	12482.3	9.50998	182.707
64	0.50119	12387.7	2496.28	12636.7	11.3932	187.027
65	0.39811	12552.5	3000.75	12906.2	13.4446	191.887
66	0.31623	12706.9	3643.94	13219.1	16.0012	196.997
67	0.25119	12834.2	4343.23	13549.2	18.6963	202.843
68	0.19953	13052.6	5387.15	14120.6	22.4272	210.063
69	0.15849	13302	6551.18	14827.7	26.2201	217.563
70	0.12589	13693.3	7893.37	15805.5	29.9608	226.373
71	0.1	13845.9	9487.92	16784.8	34.421	236.698

File: Z_p37_1.txt
Index	Frequency (Hz)	Z' (Ω)	-Z'' (Ω)	Z (Ω)	-Phase (°)	Time (s)
1	1000000	4045.33	4569.27	6102.7	48.4804	23.1122
2	794330	4996.59	4299.29	6591.64	40.7102	25.0973
3	630960	5950.08	4241.29	7306.99	35.4817	26.8523
4	501190	6938.64	4149.43	8084.71	30.8802	28.6923
5	398110	8055.38	4060.2	9020.77	26.7498	34.2124
6	316230	8792.96	3871.68	9607.6	23.7647	35.8825
7	251190	9313.27	3449.21	9931.46	20.3224	41.4226
8	199530	9914.39	3194.29	10416.3	17.8583	43.2076
9	158490	10433.5	2915.8	10833.3	15.6138	44.9976
10	125890	10866.4	2624.84	11178.9	13.5799	46.7627
11	100000	11231	2346.03	11473.4	11.7988	48.5227
12	79433	11535	2078.47	11720.8	10.2144	50.2127
13	63096	11781.8	1833.63	11923.6	8.84609	51.7328
14	50119	12008.4	1611.26	12116	7.64222	53.1678
15	39811	12186.7	1402.94	12267.2	6.56701	54.7828
16	31623	12323.5	1221.28	12383.9	5.65962	56.6728
17	25119	12442.4	1072.56	12488.5	4.92685	58.4929
18	19953	12547.2	954.992	12583.5	4.35252	60.3829
19	15849	12640.5	848.644	12669	3.84089	62.1729
20	12589	12730.6	755.429	12753	3.39593	63.883
21	10000	12804.3	666.328	12821.6	2.97895	66.733
22	7943.3	12878.9	603.798	12893.1	2.68422	68.2831
23	6309.6	12941.3	549.109	12953	2.42964	69.9781
24	5011.9	13006	504.208	13015.8	2.22008	72.9331
25	3981.1	13055.2	465.781	13063.5	2.04333	75.3232
26	3162.3	13109.7	431.901	13116.8	1.88693	78.9483
27	2511.9	13159.7	403.472	13165.8	1.75612	80.9383
28	1995.3	13208.1	379.05	13213.6	1.64384	82.6133
29	1584.9	13248.3	358.076	13253.2	1.54821	84.2084
30	1258.9	13293.8	339.869	13298.2	1.4645	85.6834
31	1000	13340.1	324.67	13344	1.39419	87.5734
32	794.33	13384.1	310.859	13387.7	1.33051	89.7385
33	630.96	13424	299.169	13427.4	1.27668	91.5985
34	501.19	13459.2	289.226	13462.3	1.23105	93.3785
35	398.11	13495.8	280.777	13498.7	1.19186	95.4086
36	316.23	13526.3	275.24	13529.1	1.16572	97.1536
37	251.19	13568.9	272.296	13571.7	1.14964	99.7186
38	199.53	13595.1	270.786	13597.8	1.14106	103.219
39	158.49	13636.1	272.461	13638.9	1.14466	105.694
40	125.89	13664.9	275.792	13667.7	1.15621	108.509
41	100	13692.9	281.661	13695.8	1.1784	110.499
42	79.433	13728.7	289.877	13731.7	1.2096	112.369
43	63.096	13768.9	303.697	13772.3	1.26355	114.149
44	50.119	13696.8	420.993	13703.2	1.76053	147
45	39.811	13811.8	338.169	13815.9	1.40256	158.665
46	31.623	13845.1	356.805	13849.7	1.47626	162.715
47	25.119	13891.1	386.724	13896.5	1.59468	164.785
48	19.953	13954.7	421.152	13961.1	1.72866	167.03
49	15.849	13993.3	481.092	14001.6	1.96906	169.25
50	12.589	14058.9	512.32	14068.2	2.08699	171.53
51	10	14110.6	582.327	14122.7	2.36318	174.23
52	7.9433	14160.7	640.639	14175.2	2.59032	177.175
53	6.3096	14238.2	704.326	14255.6	2.83195	180.14
54	5.0119	14301.2	803.231	14323.7	3.21465	183.035
55	3.9811	14368.8	914.985	14397.9	3.6436	185.73
56	3.1623	14450.6	1045.8	14488.4	4.13932	188.5
57	2.5119	14553	1224.95	14604.4	4.81137	191.28
58	1.9953	14753.1	1279.28	14808.5	4.95584	194.2
59	1.5849	14727.2	1538.37	14807.3	5.96336	197.25
60	1.2589	14820.3	1797.41	14928.9	6.91506	200.421
61	1	15031.6	2238.83	15197.4	8.47144	205.966
62	0.79433	15211.5	2637.28	15438.4	9.83586	209.336
63	0.63096	15414.5	3113.47	15725.8	11.4192	213.231
64	0.50119	15601.6	3671.01	16027.7	13.2407	217.516
65	0.39811	15885.6	4423.85	16490.1	15.5615	222.116
66	0.31623	16177	5277.89	17016.3	18.0693	227.346
67	0.25119	16563.6	6251.15	17703.9	20.6767	233.256
68	0.19953	17039.2	7585.9	18651.5	23.9988	239.821
69	0.15849	17400.7	9028.97	19603.7	27.4241	248.061
70	0.12589	18099	10875.9	21115.4	31.0023	257.027
71	0.1	18886.9	12732.3	22777.7	33.9852	267.497