Folder: Streamlit_cement_impedance/data/20210121 (part 4)

File: Z_p38_1.txt
Index	Frequency (Hz)	Z' (Ω)	-Z'' (Ω)	Z (Ω)	-Phase (°)	Time (s)
1	1000000	3868.43	4044.76	5596.87	46.2765	24.0863
2	794330	4663.69	3786.56	6007.34	39.074	25.9363
3	630960	5498.36	3701.67	6628.3	33.9497	28.3563
4	501190	6298.96	3624.68	7267.4	29.9179	30.5564
5	398110	7253.72	3523.42	8064.18	25.9077	38.1515
6	316230	7866.59	3309.7	8534.48	22.8179	41.6166
7	251190	8340.07	2992.46	8860.68	19.7383	48.8967
8	199530	8870.41	2774.6	9294.23	17.3693	50.6768
9	158490	9317.76	2526.94	9654.33	15.1734	52.5618
10	125890	9699.14	2281.45	9963.86	13.2366	57.0169
11	100000	10019	2035.47	10223.7	11.484	58.8969
12	79433	10288	1807.46	10445.6	9.96439	60.722
13	63096	10504.3	1594.08	10624.6	8.62906	62.492
14	50119	10694.8	1403.02	10786.5	7.47375	64.097
15	39811	10849.5	1223.24	10918.2	6.43272	65.877
16	31623	10962.2	1061.78	11013.5	5.53234	68.2421
17	25119	11076.4	941.053	11116.3	4.85618	70.2771
18	19953	11169.3	832.755	11200.3	4.26393	72.5822
19	15849	11242.4	738.429	11266.6	3.75794	74.5972
20	12589	11320.4	659.186	11339.6	3.33255	76.3222
21	10000	11379.6	582.311	11394.5	2.92934	79.7673
22	7943.3	11448.7	527.464	11460.9	2.63786	81.9123
23	6309.6	11507.4	481.243	11517.4	2.39474	84.0324
24	5011.9	11556.7	440.782	11565.1	2.18426	89.1925
25	3981.1	11602.9	405.548	11609.9	2.00181	91.1325
26	3162.3	11654.9	374.944	11660.9	1.84261	92.9425
27	2511.9	11694.7	349.06	11699.9	1.70965	94.7526
28	1995.3	11737.6	326.141	11742.1	1.59161	96.5926
29	1584.9	11776.6	305.444	11780.6	1.48572	98.3326
30	1258.9	11816.9	286.942	11820.4	1.39101	100.013
31	1000	11856.9	270.582	11860	1.3073	102.048
32	794.33	11889.1	255.285	11891.8	1.23008	103.848
33	630.96	11923.7	241.273	11926.2	1.15921	105.308
34	501.19	11955.8	229.398	11958	1.09921	106.998
35	398.11	11984.9	217.591	11986.9	1.04012	108.628
36	316.23	12015.5	207.159	12017.3	0.987736	110.198
37	251.19	12042	198.92	12043.6	0.946376	111.908
38	199.53	12070.9	190.87	12072.4	0.905906	113.443
39	158.49	12090.5	184.932	12092	0.876307	115.063
40	125.89	12114.7	179.422	12116	0.848506	116.858
41	100	12137.2	175.569	12138.5	0.828746	118.648
42	79.433	12157.6	172.329	12158.9	0.812085	120.523
43	63.096	12178.3	170.461	12179.5	0.801923	122.253
44	50.119	12148.5	168.268	12149.6	0.793551	150.469
45	39.811	12205.4	174.036	12206.7	0.81692	159.944
46	31.623	12229.7	172.897	12230.9	0.809962	162.174
47	25.119	12236	176.659	12237.3	0.827162	164.649
48	19.953	12247.1	189.955	12248.6	0.888599	167.024
49	15.849	12283.4	206.623	12285.1	0.963704	169.729
50	12.589	12294.2	215.782	12296.1	1.00553	172.174
51	10	12310.8	240.936	12313.2	1.1212	174.939
52	7.9433	12322.5	267.928	12325.4	1.24558	177.619
53	6.3096	12362.5	294.948	12366	1.36672	180.174
54	5.0119	12381	339.264	12385.6	1.56963	183.204
55	3.9811	12413.2	387.495	12419.3	1.78798	186.229
56	3.1623	12438.8	449.625	12446.9	2.07017	189.374
57	2.5119	12433.8	509.579	12444.2	2.34687	192.499
58	1.9953	12498.7	587.844	12512.5	2.69277	196.109
59	1.5849	12431.6	750.636	12454.2	3.4554	199.53
60	1.2589	12517.1	886.478	12548.4	4.05101	203.4
61	1	12637.2	1054.01	12681.1	4.76775	209.48
62	0.79433	12704.6	1259.08	12766.8	5.65979	213.12
63	0.63096	12796.9	1523.85	12887.3	6.79077	217.345
64	0.50119	12850	1843.87	12981.6	8.16577	221.655
65	0.39811	12976.2	2224.32	13165.5	9.72683	226.345
66	0.31623	13074.4	2737.17	13357.8	11.8243	231.77
67	0.25119	13247.7	3283.52	13648.5	13.9206	238.175
68	0.19953	13387.7	3979.79	13966.7	16.5557	244.89
69	0.15849	13622.1	4765.35	14431.6	19.281	252.706
70	0.12589	13888.5	5871.18	15078.5	22.9155	261.736
71	0.1	14302.8	7140.69	15986.3	26.5307	277.116

File: Z_p39_1.txt
Index	Frequency (Hz)	Z' (Ω)	-Z'' (Ω)	Z (Ω)	-Phase (°)	Time (s)
1	1000000	3040.99	2789.36	4126.51	42.5287	30.1104
2	794330	3544.78	2658.68	4431.03	36.8708	32.9754
3	630960	4090.22	2598.28	4845.72	32.4255	36.5955
4	501190	4624.22	2538.82	5275.32	28.7679	40.8556
5	398110	5212.26	2417.44	5745.58	24.8818	52.7108
6	316230	5662.58	2265.92	6099.11	21.8091	55.1459
7	251190	5962.1	2035.8	6300.09	18.8528	62.356
8	199530	6320.25	1875.62	6592.69	16.529	65.356
9	158490	6626.01	1700.02	6840.62	14.3898	68.2311
10	125890	6875.23	1518.87	7041	12.4577	71.5462
11	100000	7082.25	1343.01	7208.46	10.7375	74.0712
12	79433	7247.21	1179.14	7342.51	9.24118	77.9663
13	63096	7386.44	1031.5	7458.12	7.94979	81.0713
14	50119	7496.62	896.745	7550.07	6.8213	83.7314
15	39811	7589.83	778.619	7629.66	5.85732	86.5414
16	31623	7665.94	676.164	7695.7	5.04065	88.8365
17	25119	7725.71	597.767	7748.8	4.42438	90.7815
18	19953	7781.19	527.969	7799.08	3.88168	92.6665
19	15849	7831.21	470.562	7845.33	3.43866	94.4416
20	12589	7877.43	423.152	7888.79	3.0748	96.2566
21	10000	7915.09	383.94	7924.4	2.77709	100.477
22	7943.3	7955.13	351.152	7962.88	2.52749	102.577
23	6309.6	7989.16	324.408	7995.75	2.32528	104.792
24	5011.9	8026.62	303.39	8032.35	2.16463	108.137
25	3981.1	8060.04	285.681	8065.1	2.02995	109.937
26	3162.3	8091.21	271.561	8095.77	1.92227	111.772
27	2511.9	8126.99	259.285	8131.12	1.82736	113.597
28	1995.3	8154.58	248.373	8158.37	1.74458	115.407
29	1584.9	8186.43	242.181	8190.01	1.6945	117.037
30	1258.9	8220.32	235.259	8223.68	1.63931	118.877
31	1000	8247.59	228.794	8250.76	1.58902	120.362
32	794.33	8273.71	223.022	8276.72	1.54406	122.447
33	630.96	8312.32	218.842	8315.2	1.5081	124.877
34	501.19	8339.98	214.914	8342.75	1.47613	126.607
35	398.11	8368.31	211.016	8370.97	1.44447	128.362
36	316.23	8397.39	210.918	8400.04	1.4388	129.822
37	251.19	8430.13	211.771	8432.79	1.43901	131.512
38	199.53	8455.46	212.133	8458.12	1.43715	132.942
39	158.49	8482.69	215.031	8485.42	1.4521	134.487
40	125.89	8509.65	220.623	8512.51	1.48513	136.007
41	100	8539.52	227.838	8542.56	1.52832	137.502
42	79.433	8567.06	235.607	8570.3	1.57532	139.092
43	63.096	8591.95	249.362	8595.57	1.66242	140.857
44	50.119	8712.15	285.207	8716.81	1.875	142.612
45	39.811	8656.46	278.714	8660.94	1.84413	151.908
46	31.623	8691.15	299.19	8696.3	1.97161	153.858
47	25.119	8730.39	323.381	8736.38	2.12131	155.888
48	19.953	8765.52	353.789	8772.66	2.31129	158.053
49	15.849	8812.57	386.67	8821.05	2.51236	160.268
50	12.589	8858.94	419.615	8868.87	2.71186	162.593
51	10	8911.55	460.616	8923.45	2.95884	165.048
52	7.9433	8969.73	508.382	8984.12	3.24391	167.448
53	6.3096	9031.77	563.264	9049.32	3.56862	170.178
54	5.0119	9091.04	612.487	9111.65	3.85434	172.958
55	3.9811	9165.35	689.362	9191.24	4.30134	175.938
56	3.1623	9233.94	770.834	9266.05	4.77189	178.733
57	2.5119	9332.52	867.313	9372.73	5.30951	181.603
58	1.9953	9429.9	924.639	9475.13	5.60017	184.288
59	1.5849	9504.85	1159.48	9575.31	6.95502	190.343
60	1.2589	9552.74	1293.85	9639.96	7.71337	194.408
61	1	9678.3	1448.01	9786.02	8.50914	199.779
62	0.79433	9802.57	1680.63	9945.6	9.72866	203.084
63	0.63096	9909.26	1949.92	10099.3	11.1323	207.029
64	0.50119	10039.2	2284.7	10295.9	12.8209	211.284
65	0.39811	10161.1	2748.56	10526.3	15.1362	215.909
66	0.31623	10299.7	3287.34	10811.6	17.7015	221.074
67	0.25119	10539.4	3934.78	11249.9	20.4727	227.024
68	0.19953	10704.2	4760.05	11714.9	23.9742	233.529
69	0.15849	10968.6	5732.28	12376.2	27.5919	240.954
70	0.12589	11328.9	6841.53	13234.5	31.1278	249.704
71	0.1	11528	8202.66	14148.4	35.4334	260.2

File: Z_p40_1.txt
Index	Frequency (Hz)	Z' (Ω)	-Z'' (Ω)	Z (Ω)	-Phase (°)	Time (s)
1	1000000	2947.31	2707.95	4002.45	42.5765	22.8112
2	794330	3470.51	2538.46	4299.79	36.1831	26.9163
3	630960	3988.3	2469.6	4690.99	31.7663	29.1613
4	501190	4491.65	2397.45	5091.44	28.0914	31.8114
5	398110	5039.26	2274.23	5528.68	24.2898	36.7715
6	316230	5449.13	2130.38	5850.77	21.3534	38.2065
7	251190	5722.06	1890.42	6026.25	18.2822	42.9366
8	199530	6059.66	1736.42	6303.54	15.9898	44.5516
9	158490	6335.4	1565.6	6525.98	13.8808	46.2016
10	125890	6564.28	1394.25	6710.72	11.9914	47.7217
11	100000	6748.04	1228.9	6859.02	10.3212	49.6767
12	79433	6901.25	1077.52	6984.86	8.8742	51.4017
13	63096	7023.11	938.99	7085.61	7.61528	53.1218
14	50119	7127.66	814.362	7174.03	6.518	54.6768
15	39811	7208.75	709.432	7243.57	5.62053	56.1568
16	31623	7272.13	614.821	7298.08	4.83256	57.6269
17	25119	7324.26	541.956	7344.29	4.23186	59.1919
18	19953	7376.28	477.702	7391.73	3.70541	60.9169
19	15849	7421.29	426.205	7433.51	3.28689	62.527
20	12589	7460.73	382.537	7470.53	2.93517	64.047
21	10000	7496.96	347.34	7505	2.65266	65.647
22	7943.3	7531.28	318.868	7538.02	2.42441	67.187
23	6309.6	7567.48	294.677	7573.21	2.22997	68.5721
24	5011.9	7598.79	273.975	7603.73	2.06491	70.9471
25	3981.1	7631.4	257.127	7635.73	1.92975	72.5971
26	3162.3	7660.62	245.561	7664.55	1.83599	74.1372
27	2511.9	7688.59	234.043	7692.15	1.74356	75.7172
28	1995.3	7711.69	224.55	7714.96	1.66787	77.1022
29	1584.9	7742.91	217.835	7745.98	1.6115	78.5322
30	1258.9	7775.27	210.595	7778.12	1.55149	80.0573
31	1000	7800.05	204.572	7802.73	1.50235	81.8323
32	794.33	7827.85	199.666	7830.4	1.46113	83.9473
33	630.96	7856.23	195.413	7858.66	1.42486	85.4924
34	501.19	7882.61	190.297	7884.91	1.38293	87.1924
35	398.11	7912.21	187.993	7914.45	1.36108	88.5574
36	316.23	7937.13	185.032	7939.28	1.33545	89.9875
37	251.19	7963.13	183.595	7965.25	1.32075	91.5675
38	199.53	7987.43	181.39	7989.49	1.30093	93.1125
39	158.49	8013.2	183.021	8015.29	1.30841	94.6325
40	125.89	8035.74	183.438	8037.83	1.30771	96.3976
41	100	8060.44	187.616	8062.62	1.33339	97.9426
42	79.433	8085.07	192.337	8087.36	1.36276	99.4976
43	63.096	8108.75	199.195	8111.19	1.40721	101.413
44	50.119	8126.04	227.317	8129.22	1.60237	103.133
45	39.811	8157.15	219.295	8160.1	1.53996	112.508
46	31.623	8178.08	233.117	8181.4	1.63278	114.498
47	25.119	8209.17	244.882	8212.82	1.70865	116.408
48	19.953	8238.43	270.83	8242.88	1.88287	118.523
49	15.849	8272.49	297.419	8277.84	2.05906	120.818
50	12.589	8304.9	320.05	8311.07	2.20694	123.193
51	10	8336.84	358.216	8344.53	2.46037	125.638
52	7.9433	8383.51	397.355	8392.92	2.71363	128.288
53	6.3096	8436.34	442.612	8447.95	3.00326	131.623
54	5.0119	8478.13	494.078	8492.51	3.33524	135.728
55	3.9811	8530.49	556.244	8548.61	3.73078	139.438
56	3.1623	8584.35	626.797	8607.21	4.17611	145.008
57	2.5119	8660.35	691.292	8687.9	4.56382	148.949
58	1.9953	8699.88	829.174	8739.31	5.44434	152.599
59	1.5849	8795.92	894.563	8841.3	5.80713	157.684
60	1.2589	8869.22	1065.65	8933.01	6.85132	161.154
61	1	8963.19	1211.99	9044.76	7.70078	168.054
62	0.79433	9073.33	1399.16	9180.58	8.76628	172.149
63	0.63096	9176.39	1615.53	9317.51	9.98476	176.069
64	0.50119	9268.99	1918.94	9465.55	11.6966	180.559
65	0.39811	9388.57	2237.32	9651.47	13.4037	185.119
66	0.31623	9514.55	2665.66	9880.91	15.6511	190.159
67	0.25119	9682.19	3251.22	10213.5	18.5617	195.954
68	0.19953	9838.94	3825.84	10556.6	21.2484	202.59
69	0.15849	10040.2	4595.77	11042.1	24.5952	210.33
70	0.12589	10253.3	5601.18	11683.5	28.6469	219.23
71	0.1	10656.1	6812.71	12647.7	32.5919	229.9

File: Z_p41_1.txt
Index	Frequency (Hz)	Z' (Ω)	-Z'' (Ω)	Z (Ω)	-Phase (°)	Time (s)
1	1000000	2905.19	2493.4	3828.47	40.6381	23.9182
2	794330	3331.78	2325.58	4063.14	34.915	25.9933
3	630960	3794.86	2245.27	4409.33	30.6112	28.4983
4	501190	4254.02	2156.6	4769.44	26.883	31.0284
5	398110	4734.5	2030.59	5151.58	23.2141	36.6835
6	316230	5101.41	1888.95	5439.9	20.3186	38.6785
7	251190	5329.68	1666.85	5584.25	17.367	45.4236
8	199530	5623.32	1522.6	5825.81	15.1504	47.3837
9	158490	5862.49	1367.17	6019.79	13.1271	53.8138
10	125890	6058.76	1211.78	6178.76	11.3102	56.0388
11	100000	6218.68	1064.27	6309.09	9.71154	57.8339
12	79433	6346.01	929.527	6413.73	8.33309	59.6689
13	63096	6448.18	809.869	6498.84	7.15866	61.5839
14	50119	6535.37	700.616	6572.82	6.11896	63.524
15	39811	6601.09	607.916	6629.02	5.26171	65.484
16	31623	6657.85	527.069	6678.68	4.52639	67.264
17	25119	6705.45	463.726	6721.46	3.95608	69.2891
18	19953	6748.93	410.068	6761.37	3.47704	71.0991
19	15849	6788.13	366.273	6798.01	3.08856	72.7241
20	12589	6819.55	328.551	6827.46	2.75826	74.5842
21	10000	6848.49	297.621	6854.96	2.48839	76.5292
22	7943.3	6880.31	273.724	6885.75	2.27824	78.2592
23	6309.6	6907.07	254.631	6911.76	2.11127	80.0893
24	5011.9	6938.06	238.322	6942.15	1.96734	81.8893
25	3981.1	6964.44	225.789	6968.1	1.8569	83.7993
26	3162.3	6987.51	215.733	6990.84	1.76839	85.5694
27	2511.9	7013.05	206.759	7016.09	1.68871	87.3294
28	1995.3	7037.75	200.379	7040.6	1.63088	89.0394
29	1584.9	7065.73	194.298	7068.4	1.57516	90.7945
30	1258.9	7091.23	189.373	7093.75	1.52974	92.3695
31	1000	7117.44	185.046	7119.85	1.48929	93.9745
32	794.33	7143.44	180.853	7145.73	1.45027	95.7396
33	630.96	7163.48	178.2	7165.7	1.42501	97.5396
34	501.19	7190.91	176.026	7193.07	1.40226	99.3446
35	398.11	7217.88	173.299	7219.97	1.37539	101.07
36	316.23	7242.77	171.828	7244.81	1.35903	102.745
37	251.19	7266.28	171.28	7268.29	1.35032	104.52
38	199.53	7291.52	171.14	7293.53	1.34454	106.255
39	158.49	7311.18	171.748	7313.2	1.34569	107.895
40	125.89	7333.24	174.31	7335.31	1.36166	109.92
41	100	7360.64	177.534	7362.78	1.38167	111.765
42	79.433	7379.84	181.042	7382.06	1.4053	113.53
43	63.096	7403.48	188.1	7405.87	1.4554	115.21
44	50.119	7415.53	215.365	7418.66	1.66354	116.945
45	39.811	7451.08	203.449	7453.86	1.56405	126.46
46	31.623	7472.55	217.402	7475.71	1.66646	128.65
47	25.119	7502.06	232.577	7505.67	1.7757	130.755
48	19.953	7528.69	252.724	7532.93	1.92259	132.995
49	15.849	7565.6	267.873	7570.34	2.02781	135.36
50	12.589	7594.34	297.937	7600.18	2.24665	137.77
51	10	7628.44	322.142	7635.23	2.41811	140.545
52	7.9433	7667.54	354.694	7675.74	2.64857	143.37
53	6.3096	7714.54	390.498	7724.41	2.89775	146.266
54	5.0119	7757.53	435.913	7769.77	3.2162	149.241
55	3.9811	7805.01	485.791	7820.11	3.56155	152.276
56	3.1623	7853.28	543.066	7872.04	3.95579	155.771
57	2.5119	7916.9	632.077	7942.1	4.56475	158.691
58	1.9953	7966.77	691.497	7996.73	4.9607	161.676
59	1.5849	8002.72	806.43	8043.25	5.75424	164.811
60	1.2589	8079.26	900.229	8129.25	6.35794	167.941
61	1	8154.83	1044.81	8221.49	7.30108	173.631
62	0.79433	8249.39	1217.05	8338.68	8.39241	177.026
63	0.63096	8326.83	1426.23	8448.08	9.71937	181.001
64	0.50119	8406.65	1677.41	8572.37	11.2842	185.271
65	0.39811	8530.51	1984.23	8758.24	13.0944	189.881
66	0.31623	8644.37	2365.31	8962.13	15.3029	194.911
67	0.25119	8745.98	2875.06	9206.42	18.1972	200.562
68	0.19953	8978.86	3431.75	9612.33	20.917	207.837
69	0.15849	9146.04	4088.64	10018.3	24.0865	215.207
70	0.12589	9309.37	4904.61	10522.3	27.7824	224.132
71	0.1	9460.04	6061.84	11235.6	32.6511	234.837

File: Z_p42_1.txt
Index	Frequency (Hz)	Z' (Ω)	-Z'' (Ω)	Z (Ω)	-Phase (°)	Time (s)
1	1000000	3134.47	2893.34	4265.71	42.7092	23.5912
2	794330	3629.86	2695.14	4521.03	36.5935	25.4513
3	630960	4190.56	2612.4	4938.16	31.9395	27.2813
4	501190	4740.6	2523.75	5370.54	28.0294	29.3063
5	398110	5317.51	2414.04	5839.82	24.4171	34.9264
6	316230	5764.43	2262.24	6192.44	21.4274	36.6915
7	251190	6040.06	2016.85	6367.89	18.4648	42.0116
8	199530	6392.31	1859.33	6657.23	16.2181	43.8816
9	158490	6686.89	1688.11	6896.68	14.1683	45.7166
10	125890	6933.4	1514.88	7096.96	12.3249	47.6167
11	100000	7133.74	1346.59	7259.72	10.6896	49.3967
12	79433	7307.19	1195.08	7404.27	9.28837	51.2717
13	63096	7450.2	1054.08	7524.4	8.05297	53.3418
14	50119	7569.97	931.339	7627.04	7.0139	55.1318
15	39811	7664.85	819.488	7708.53	6.1026	56.8368
16	31623	7748.71	720.189	7782.1	5.30999	58.5869
17	25119	7815.4	643.123	7841.82	4.70422	60.2219
18	19953	7883.24	576.414	7904.28	4.18197	61.9419
19	15849	7941.19	518.601	7958.1	3.73641	63.707
20	12589	7997.76	471.74	8011.66	3.37563	65.757
21	10000	8043.61	432.125	8055.2	3.07513	67.627
22	7943.3	8093.22	396.716	8102.93	2.8063	69.4571
23	6309.6	8136.42	367.909	8144.74	2.58901	71.2171
24	5011.9	8179.2	345.236	8186.48	2.41696	72.9121
25	3981.1	8217.71	326.774	8224.2	2.27714	74.5972
26	3162.3	8255.55	311.107	8261.41	2.15815	76.2172
27	2511.9	8292.24	297.364	8297.57	2.05378	78.3622
28	1995.3	8326.45	285.018	8331.33	1.96049	80.2173
29	1584.9	8365.55	277.098	8370.13	1.89716	81.8473
30	1258.9	8401.26	269.961	8405.6	1.84047	83.5623
31	1000	8432.74	262.758	8436.83	1.78472	85.3174
32	794.33	8469.19	258.276	8473.13	1.74675	86.9974
33	630.96	8503.24	254.603	8507.05	1.71503	88.5274
34	501.19	8541.89	251.406	8545.59	1.68585	90.3525
35	398.11	8573.51	251.468	8577.19	1.68005	92.0675
36	316.23	8605.3	252.819	8609.01	1.68283	94.0825
37	251.19	8640.26	254.528	8644.01	1.68735	95.9726
38	199.53	8673.9	256.397	8677.69	1.69314	97.7176
39	158.49	8705.57	262.134	8709.51	1.72472	99.5976
40	125.89	8744.94	273.535	8749.21	1.79158	101.918
41	100	8773.05	283.905	8777.65	1.8535	103.863
42	79.433	8808.72	294.871	8813.65	1.91725	105.693
43	63.096	8848.77	312.085	8854.27	2.01991	107.683
44	50.119	8900.61	320.367	8906.38	2.0614	109.718
45	39.811	8920.9	353.756	8927.91	2.27086	119.213
46	31.623	8979.2	382.811	8987.36	2.44121	121.303
47	25.119	9019.25	414.021	9028.75	2.62827	126.443
48	19.953	9069.87	453.413	9081.2	2.8619	128.683
49	15.849	9126.41	492.647	9139.69	3.08985	131.183
50	12.589	9183	554.871	9199.75	3.45782	133.853
51	10	9252.49	602.196	9272.07	3.72383	136.343
52	7.9433	9324.71	661.149	9348.11	4.05565	139.123
53	6.3096	9398.94	735.4	9427.66	4.47387	142.008
54	5.0119	9485.18	813.278	9519.98	4.90067	144.898
55	3.9811	9571.72	912.194	9615.09	5.4439	148.114
56	3.1623	9677.44	1015.28	9730.55	5.98909	151.224
57	2.5119	9786.35	1134.07	9851.84	6.61013	154.339
58	1.9953	9867.04	1306.43	9953.15	7.54228	157.654
59	1.5849	10004.5	1482.69	10113.8	8.43001	160.949
60	1.2589	10151.3	1716.58	10295.4	9.59789	164.199
61	1	10307	1928.12	10485.8	10.5958	170.094
62	0.79433	10481.3	2214.54	10712.7	11.9303	173.624
63	0.63096	10666.6	2583	10974.9	13.6126	177.919
64	0.50119	10859.9	2985.07	11262.7	15.3694	182.434
65	0.39811	11045.8	3531.4	11596.6	17.7294	187.139
66	0.31623	11275.6	4190.75	12029.2	20.3884	192.319
67	0.25119	11601.4	4991.93	12629.8	23.2815	198.394
68	0.19953	11921.2	5840.69	13275.1	26.1021	205.545
69	0.15849	12344.1	7078.22	14229.5	29.8303	214.4
70	0.12589	12864.2	8432.3	15381.5	33.2442	223.5
71	0.1	13404.5	9935.88	16685.4	36.5471	234.275

File: Z_p43_1.txt
Index	Frequency (Hz)	Z' (Ω)	-Z'' (Ω)	Z (Ω)	-Phase (°)	Time (s)
1	1000000	3071.97	2977.65	4278.24	44.1067	24.8883
2	794330	3621.26	2866.64	4618.56	38.3656	27.2983
3	630960	4211.51	2844.21	5081.96	34.0328	29.4283
4	501190	4810.92	2789.95	5561.37	30.1103	31.3534
5	398110	5462.01	2690.93	6088.9	26.2278	37.1135
6	316230	5947.75	2567.76	6478.36	23.3508	38.9385
7	251190	6301.86	2314.57	6713.47	20.1675	44.4786
8	199530	6713.51	2156.45	7051.35	17.8076	46.2436
9	158490	7066.2	1977.39	7337.66	15.6336	47.8937
10	125890	7365.71	1792.7	7580.73	13.6789	49.7587
11	100000	7612.88	1608.67	7780.99	11.9316	54.0338
12	79433	7826.9	1434.78	7957.32	10.3878	57.4539
13	63096	8002.58	1277.8	8103.95	9.07201	60.1739
14	50119	8157.39	1127.72	8234.97	7.871	64.554
15	39811	8282.42	997.814	8342.31	6.86953	66.569
16	31623	8388.39	881.942	8434.63	6.00194	69.0041
17	25119	8475.47	788.364	8512.05	5.3142	72.0741
18	19953	8560.17	705.1	8589.16	4.70881	74.4442
19	15849	8634.01	633.975	8657.26	4.19955	76.5042
20	12589	8702.28	575.432	8721.28	3.78314	78.6692
21	10000	8760.12	523.446	8775.75	3.41955	83.8343
22	7943.3	8817.39	478.294	8830.36	3.10493	86.2244
23	6309.6	8868.92	440.432	8879.85	2.84298	88.5644
24	5011.9	8919.75	410.003	8929.17	2.63179	91.4445
25	3981.1	8964.39	381.744	8972.52	2.43844	93.4095
26	3162.3	9007.91	359.455	9015.08	2.28514	95.6196
27	2511.9	9052.28	340.736	9058.69	2.15565	99.4896
28	1995.3	9100.34	324.195	9106.11	2.04027	104.3
29	1584.9	9133.55	310.332	9138.82	1.946	109.485
30	1258.9	9172.23	297.836	9177.06	1.85983	110.975
31	1000	9206.82	287.845	9211.32	1.79073	112.47
32	794.33	9246.09	279.649	9250.31	1.73239	114.475
33	630.96	9282.94	270.813	9286.89	1.67103	116.335
34	501.19	9322.91	266.879	9326.73	1.63971	118.195
35	398.11	9357.88	260.684	9361.51	1.59569	121.695
36	316.23	9391.04	255.684	9394.52	1.55957	123.845
37	251.19	9429.62	254.339	9433.05	1.54503	125.94
38	199.53	9457.47	256.694	9460.95	1.55473	128.56
39	158.49	9495.75	255.945	9499.2	1.54396	130.805
40	125.89	9529.57	259.928	9533.12	1.56241	132.65
41	100	9563.51	265.722	9567.2	1.59155	134.39
42	79.433	9593.99	275.884	9597.95	1.64714	138.085
43	63.096	9627.81	281.629	9631.93	1.67552	141.175
44	50.119	9648.89	289.654	9653.23	1.71947	143.395
45	39.811	9697.39	312.693	9702.43	1.84687	154.826
46	31.623	9729.98	336.998	9735.81	1.98365	157.191
47	25.119	9775.91	364.104	9782.69	2.133	161.276
48	19.953	9821.39	395.549	9829.35	2.3063	163.426
49	15.849	9866.91	433.885	9876.45	2.51789	165.846
50	12.589	9912.64	476.018	9924.06	2.7493	168.411
51	10	9963.63	525.285	9977.47	3.01785	171.321
52	7.9433	10027.2	590.247	10044.6	3.3688	174.336
53	6.3096	10090.5	668.907	10112.7	3.79263	177.291
54	5.0119	10156.2	740.696	10183.2	4.17121	180.121
55	3.9811	10231.1	847.243	10266.2	4.73388	182.916
56	3.1623	10322.8	951.863	10366.6	5.26834	185.741
57	2.5119	10413.4	1087.96	10470.1	5.96445	188.671
58	1.9953	10526.2	1213.42	10595.9	6.57581	191.506
59	1.5849	10653.2	1384.64	10742.8	7.40543	194.381
60	1.2589	10794.2	1591.12	10910.8	8.38534	197.516
61	1	10891.6	1905.36	11057.1	9.92279	203.217
62	0.79433	11050.4	2210.92	11269.4	11.3141	206.982
63	0.63096	11206.5	2563.31	11495.9	12.8839	210.847
64	0.50119	11385.5	3049.47	11786.8	14.9941	215.127
65	0.39811	11524	3606.64	12075.2	17.3785	219.687
66	0.31623	11732.3	4282.93	12489.6	20.0548	224.957
67	0.25119	11998.6	5203.88	13078.5	23.4467	230.877
68	0.19953	12265.2	6142.8	13717.4	26.6032	237.652
69	0.15849	12627.6	7388.31	14630.2	30.3317	245.402
70	0.12589	12916.5	9016.23	15752.1	34.9165	254.167
71	0.1	13531.1	11029.4	17456.7	39.184	264.863

File: Z_p44_1.txt
Index	Frequency (Hz)	Z' (Ω)	-Z'' (Ω)	Z (Ω)	-Phase (°)	Time (s)
1	1000000	3076.15	3026.68	4315.49	44.5356	20.5822
2	794330	3644.57	2891.86	4652.5	38.431	22.5272
3	630960	4261	2850.35	5126.47	33.7801	24.6723
4	501190	4866.35	2770.27	5599.62	29.6516	26.7273
5	398110	5501.42	2675.95	6117.71	25.9388	35.5725
6	316230	5994.7	2522.77	6503.91	22.8229	38.1575
7	251190	6330.01	2269.26	6724.47	19.7224	46.2127
8	199530	6728.92	2099.7	7048.91	17.3301	48.2577
9	158490	7068.88	1911.43	7322.74	15.131	51.0377
10	125890	7351.6	1718.16	7549.71	13.1546	53.3728
11	100000	7581.36	1531.06	7734.42	11.4173	55.6228
12	79433	7782.72	1355.52	7899.88	9.88011	57.3579
13	63096	7943.18	1199.9	8033.3	8.59019	60.4179
14	50119	8077.23	1055.64	8145.92	7.44597	63.353
15	39811	8187.81	928.048	8240.24	6.4666	65.908
16	31623	8286.21	818.17	8326.51	5.63904	67.803
17	25119	8365.6	726.501	8397.08	4.96334	70.6431
18	19953	8437.92	647.657	8462.74	4.38916	72.4631
19	15849	8507.13	580.82	8526.94	3.90578	74.5082
20	12589	8565.08	525.308	8581.18	3.50963	78.5432
21	10000	8612.13	475.807	8625.27	3.16229	80.5583
22	7943.3	8671.91	437.822	8682.96	2.89026	83.0083
23	6309.6	8718.05	404.776	8727.44	2.65832	84.8634
24	5011.9	8760.9	378.219	8769.06	2.472	86.7784
25	3981.1	8806.12	355.705	8813.3	2.31309	88.5134
26	3162.3	8843.93	336.105	8850.32	2.17642	90.5485
27	2511.9	8888.06	319.916	8893.81	2.06141	92.6835
28	1995.3	8923.45	307.311	8928.74	1.97241	94.5485
29	1584.9	8963.29	295.86	8968.17	1.89053	96.0586
30	1258.9	8999.41	285.999	9003.96	1.82023	97.3736
31	1000	9039.43	278.314	9043.72	1.76352	98.8286
32	794.33	9076.02	270.695	9080.05	1.70836	100.244
33	630.96	9112.99	264.203	9116.82	1.66065	101.644
34	501.19	9154.57	257.576	9158.19	1.61167	103.084
35	398.11	9186.73	253.568	9190.23	1.58105	107.904
36	316.23	9218.23	251.178	9221.65	1.56081	109.344
37	251.19	9252.27	248.486	9255.6	1.53841	111.129
38	199.53	9284.01	246.568	9287.28	1.52132	112.519
39	158.49	9320.91	245.394	9324.14	1.50809	114.019
40	125.89	9350.24	247.221	9353.51	1.51455	115.599
41	100	9384	252.809	9387.41	1.5432	117.199
42	79.433	9417.56	257.881	9421.09	1.56854	118.814
43	63.096	9446.49	267.196	9450.27	1.62019	120.329
44	50.119	9501.23	288.915	9505.62	1.74172	122.164
45	39.811	9514.93	289.425	9519.33	1.74229	131.779
46	31.623	9555.51	305.412	9560.39	1.83065	134.124
47	25.119	9583.08	324.309	9588.57	1.93825	136.484
48	19.953	9628.86	352.161	9635.3	2.09457	138.869
49	15.849	9663.46	377.093	9670.82	2.23469	141.464
50	12.589	9705.21	416.3	9714.14	2.45617	143.859
51	10	9758.33	463.359	9769.33	2.71856	146.47
52	7.9433	9803.8	501.467	9816.62	2.92814	149.155
53	6.3096	9856.37	562.942	9872.43	3.26887	152.075
54	5.0119	9923.77	634.215	9944.02	3.65672	154.995
55	3.9811	9982.66	706.445	10007.6	4.04792	159.81
56	3.1623	10057.8	798.805	10089.5	4.54097	162.95
57	2.5119	10109.2	901.57	10149.3	5.09633	167.445
58	1.9953	10169.3	1082.35	10226.7	6.07532	171.14
59	1.5849	10427.4	1119.11	10487.3	6.12578	174.325
60	1.2589	10425.4	1379.63	10516.3	7.53832	177.91
61	1	10522.6	1608.56	10644.8	8.69139	183.69
62	0.79433	10667.2	1883.37	10832.2	10.0128	187.715
63	0.63096	10815.2	2195.58	11035.8	11.4756	191.675
64	0.50119	10955	2588.52	11256.7	13.2944	195.66
65	0.39811	11181.2	3058.26	11591.9	15.2973	200.401
66	0.31623	11361	3616.03	11922.6	17.6554	206.261
67	0.25119	11687.8	4362.19	12475.3	20.4669	211.881
68	0.19953	11932.2	5166.49	13002.7	23.412	218.576
69	0.15849	12305.3	6141.24	13752.6	26.5226	226.211
70	0.12589	12839.2	7373.17	14805.7	29.8674	234.991
71	0.1	13416.2	8612.28	15942.6	32.6976	245.336