Folder: Streamlit_cement_impedance/data/20210121

Note: README.md
# Software KDssZ version 1.0

This software tool works to analyze impedance measurements through a lumped circuital model.

## The repository contains:

- The Python module called [KDssZ.py](https://github.com/dantrica/Streamlit_cement_impedance/blob/c79735cefb679f8cb21de758db89e5011d7d15d4/KDssZ.py) contains the algorithms to optimize the electrical impedance measurements.
- The Python module called [appZ.py](https://github.com/dantrica/Streamlit_cement_impedance/blob/b421c1652a15b18d4e0220819822e362abc5bec6/appZ.py) contains the code to deploy the application on the Streamlit platform.
- All [data](https://github.com/dantrica/Streamlit_cement_impedance/tree/c79735cefb679f8cb21de758db89e5011d7d15d4/data) acquired during the experimental campaign is located in this repository Streamlit_cement_impedance/data/.
- The [Figures](https://github.com/dantrica/Streamlit_cement_impedance/tree/c79735cefb679f8cb21de758db89e5011d7d15d4/figures) folder contains an image describing the lumped circuit model.

## The left sidebar functionalities:

The user can upload the impedance measurements in format .txt. Moreover, this object contains the elements that will be presented in the left sidebar, such as i) the uploading file option, ii) the lumped circuit model, iii) Add and Remove buttons to move data in the Optimization zone, iv) Run and Reset buttons to start and clear the optimization.

## Project Description: 

$\texttt{KDssZ}$ has been developed to optimize experimental electrical impedance data to a lumped circuit model. This approach allows users to correlate the interactions among the components in the composite-electrodes, cement, nanoparticles, and pores with the measured impedance, which is analyzed across three frequency ranges: high, medium, and low. Although the software has been validated with impedance measurements from gold nanoparticles/cement-based composites, it can also be used to study the electrical properties of other cement-based composites. KDssZ is deployed on the Streamlit platform, and in line with the principles of open science, it allows researchers working on similar studies to use this tool to explore new research questions related to cement-based composites.

## Usage instructions:

The main functionalities of the software KDssZ are displayed in Figure~\ref{}, and enumerated according to the following list:

1. Push button \texttt{Browse Files} to upload \texttt{.txt} files with electrical impedance spectroscopy data.
2. Help menu explaining the format files to be received; help hints boxes to report whether a file was added previously or it is already in the optimization zone; and help tips on buttons.
3. Choosing the file data since Select tag.
4. Buttons $\texttt{Add data}$ and $\texttt{Remove}$, to add or remove data to the optimization zone.
5. Buttons $\texttt{Run}$ and $\texttt{Reset}$, to start the optimization, create the plots and return the DataFrame with the parameters.
6. Figures: wide mode and saving options.
7. T

File: Z_p18_1.txt
Index	Frequency (Hz)	Z' (Ω)	-Z'' (Ω)	Z (Ω)	-Phase (°)	Time (s)
1	1000000	3162.9	7827.87	8442.72	67.9985	100.929
2	794330	5146.27	8437.02	9882.68	58.6184	104.084
3	630960	7263.07	9478.35	11941.2	52.5378	106.429
4	501190	9460.98	10462.7	14105.9	47.8782	108.914
5	398110	12163.4	12338.5	17325.9	45.4096	118.799
6	316230	14835.3	13233.6	19879.9	41.7341	121.079
7	251190	16948.8	13241.5	21508.1	37.9994	126.839
8	199530	19508.6	13488.9	23717.9	34.6612	128.809
9	158490	22039.4	13435.3	25811.7	31.3665	130.829
10	125890	24506	13167.9	27819.8	28.2505	132.664
11	100000	26788.3	12668	29632.6	25.3091	134.839
12	79433	28918.4	11993.5	31306.9	22.5256	136.979
13	63096	30871.8	11192.9	32838.2	19.9286	139.399
14	50119	32541	10307.7	34134.6	17.5761	141.514
15	39811	34103.1	9443.27	35386.4	15.4776	143.794
16	31623	35357.2	8522.96	36369.9	13.5528	145.614
17	25119	36393.9	7809.97	37222.5	12.1117	147.76
18	19953	37343.5	7130.94	38018.3	10.8108	149.835
19	15849	38233.3	6473.8	38777.5	9.61036	151.88
20	12589	38993.1	5923.45	39440.5	8.63777	154.085
21	10000	39784.5	5442.61	40155.1	7.78983	157.62
22	7943.3	40447.6	5050.98	40761.8	7.11808	159.755
23	6309.6	41021.6	4716.56	41291.9	6.55891	162.07
24	5011.9	41578.8	4442.75	41815.5	6.09899	164.24
25	3981.1	42108.4	4217.17	42319	5.71912	166.415
26	3162.3	42619.6	4040.69	42810.7	5.41593	168.66
27	2511.9	43101.4	3900.8	43277.5	5.17134	170.565
28	1995.3	43619.3	3796.81	43784.2	4.97473	172.67
29	1584.9	44102.1	3719.29	44258.7	4.82056	174.45
30	1258.9	44605.7	3666.66	44756.1	4.69925	176.345
31	1000	45086.2	3632.63	45232.3	4.60642	178.355
32	794.33	45569.3	3613.03	45712.3	4.5333	180.455
33	630.96	46089.3	3606.22	46230.1	4.47395	182.405
34	501.19	46611.3	3607.48	46750.7	4.42558	184.51
35	398.11	47125.7	3610.07	47263.8	4.38059	186.715
36	316.23	47653.8	3623.85	47791.4	4.34871	188.715
37	251.19	48180.3	3632.43	48317	4.31151	190.9
38	199.53	48715.7	3641.33	48851.6	4.27471	192.9
39	158.49	49257.7	3648.89	49392.6	4.2366	195.055
40	125.89	49785.3	3649.03	49918.8	4.19201	196.955
41	100	50341.3	3645.75	50473.1	4.14217	198.825
42	79.433	50870.2	3629.81	50999.5	4.08138	201.005
43	63.096	51412.5	3620.65	51539.9	4.02832	203.236
44	50.119	51943.9	3612.18	52069.3	3.97795	205.756
45	39.811	52463.4	3569.17	52584.7	3.89192	215.716
46	31.623	53009.9	3539.1	53127.9	3.81957	218.181
47	25.119	53539.1	3510.99	53654.1	3.75198	220.591
48	19.953	54054.7	3488.77	54167.1	3.69283	223.196
49	15.849	54551.4	3462.07	54661.2	3.63137	226.126
50	12.589	55052	3428.89	55158.7	3.56404	229.171
51	10	55523.1	3389.95	55626.5	3.49384	232.386
52	7.9433	56029.2	3366.03	56130.2	3.43799	235.446
53	6.3096	56493.9	3345.03	56592.9	3.38856	238.481
54	5.0119	56925.6	3340.13	57023.5	3.358	242.056
55	3.9811	57365.5	3362.2	57463.9	3.35427	245.296
56	3.1623	57776	3407.14	57876.3	3.37491	248.626
57	2.5119	58177.9	3439.98	58279.5	3.38388	252.116
58	1.9953	58621.5	3594.4	58731.6	3.50872	255.566
59	1.5849	59062.2	3777.76	59182.9	3.65979	260.217
60	1.2589	59309.7	3994.37	59444.1	3.85292	263.857
61	1	59748.7	4322.27	59904.8	4.13762	270.442
62	0.79433	60210.5	4735.76	60396.4	4.49725	274.397
63	0.63096	60703.5	5253.51	60930.4	4.94627	279.197
64	0.50119	61125.7	5919.11	61411.6	5.53099	283.537
65	0.39811	61699.3	6708.46	62062.9	6.2053	288.437
66	0.31623	62273.6	7681.28	62745.5	7.03176	293.947
67	0.25119	63063.3	8889.5	63686.8	8.02363	300.022
68	0.19953	63846.1	10037.2	64630.3	8.93433	306.987
69	0.15849	64832.8	11556.7	65854.7	10.107	314.953
70	0.12589	65728.7	13411.2	67082.9	11.5323	324.148
71	0.1	66791.5	15788.1	68632.2	13.2994	335.243

File: Z_p19_1.txt
Index	Frequency (Hz)	Z' (Ω)	-Z'' (Ω)	Z (Ω)	-Phase (°)	Time (s)
1	1000000	3257.99	10087.2	10600.3	72.1004	58.9909
2	794330	6051.87	11033	12583.8	61.2542	62.3559
3	630960	8879.69	12566.6	15387.2	54.7545	65.951
4	501190	12073.2	14035.3	18513.6	49.2979	74.2562
5	398110	16249.8	17833.3	24126.4	47.66	89.8665
6	316230	19731.7	19368.9	27649.4	44.4684	92.4765
7	251190	23262.1	19305.2	30229.4	39.6894	99.0166
8	199530	27082.9	19675	33475.2	35.9974	101.927
9	158490	30823	19572.4	36512.1	32.4154	104.327
10	125890	34461.5	19060.1	39381.3	28.9463	106.947
11	100000	37764.9	18197.4	41920.6	25.7275	109.637
12	79433	40905.6	17150.2	44355.3	22.7465	116.602
13	63096	43594.6	15873.1	46394.4	20.0069	128.302
14	50119	46015.6	14570.2	48267.2	17.5696	132.547
15	39811	48108.8	13218.5	49891.7	15.3637	136.332
16	31623	49845.5	11748.5	51211.4	13.2625	139.317
17	25119	51079.4	10678.3	52183.7	11.8078	142.107
18	19953	52407.5	9779.65	53312.2	10.5703	144.247
19	15849	53549.3	8767.44	54262.3	9.29835	146.583
20	12589	54540.5	8105.36	55139.5	8.45297	148.743
21	10000	55574	7356.05	56058.8	7.54012	152.473
22	7943.3	56417.8	6838.52	56830.7	6.91122	155.798
23	6309.6	57210.8	6396.51	57567.3	6.37951	160.463
24	5011.9	57952.6	6036.05	58266.1	5.9462	169.728
25	3981.1	58669.3	5750.22	58950.4	5.59772	176.963
26	3162.3	59352.6	5525.93	59609.3	5.3191	182.668
27	2511.9	60046.5	5354.61	60284.8	5.09583	187.718
28	1995.3	60721	5218.62	60944.8	4.91217	193.078
29	1584.9	61397.3	5129.98	61611.3	4.77619	198.458
30	1258.9	62108.1	5071.3	62314.8	4.668	203.399
31	1000	62775.9	5020.52	62976.4	4.57251	207.944
32	794.33	63460.4	4996.11	63656.7	4.5015	212.554
33	630.96	64149.1	4982.7	64342.4	4.44145	216.804
34	501.19	64889.5	4979.98	65080.3	4.38859	220.839
35	398.11	65612.4	4989.52	65801.9	4.34871	226.904
36	316.23	66330.3	4989.4	66517.7	4.30171	233.449
37	251.19	67070.7	4992.42	67256.2	4.25697	246.459
38	199.53	67813.7	5000.12	67997.8	4.21697	253.454
39	158.49	68531.8	4994.03	68713.6	4.16787	259.45
40	125.89	69266.6	4978.86	69445.3	4.11133	268.15
41	100	69988.2	4952.67	70163.2	4.04775	271.34
42	79.433	70711	4929.05	70882.5	3.98747	274.975
43	63.096	71451.9	4956.7	71623.7	3.96831	290.025
44	50.119	72139.1	4903.35	72305.6	3.88846	298.855
45	39.811	72925.7	4797.11	73083.3	3.76354	317.946
46	31.623	73575.8	4754.83	73729.3	3.69759	332.651
47	25.119	74286.5	4664.17	74432.8	3.59267	343.721
48	19.953	74989.7	4629.52	75132.4	3.5327	346.066
49	15.849	75659.7	4546.05	75796.2	3.43851	352.426
50	12.589	76335.4	4463.73	76465.8	3.34657	355.626
51	10	76982.1	4381.21	77106.7	3.2573	360.796
52	7.9433	77623.7	4285.19	77741.9	3.15978	364.952
53	6.3096	78228.7	4206.28	78341.7	3.07778	369.627
54	5.0119	78806.9	4120.81	78914.5	2.99327	374.282
55	3.9811	79364.2	4043.34	79467.1	2.91651	377.437
56	3.1623	79871.2	3983.03	79970.4	2.85487	381.337
57	2.5119	80409	3969.73	80507	2.82636	396.722
58	1.9953	80873.7	3930.17	80969.1	2.78218	416.062
59	1.5849	81421.2	4030.01	81520.9	2.83359	422.988
60	1.2589	81823.2	4139.61	81927.8	2.89625	427.813
61	1	82163.8	4344.97	82278.6	3.02708	436.808
62	0.79433	82672.1	4595.67	82799.7	3.18175	441.273
63	0.63096	83156.4	4942.94	83303.2	3.40174	446.058
64	0.50119	83610.6	5375.31	83783.2	3.67847	450.738
65	0.39811	84202.3	5965.93	84413.4	4.05277	455.728
66	0.31623	84803.2	6679.81	85065.8	4.5038	462.513
67	0.25119	85445.9	7456.7	85770.6	4.98746	470.028
68	0.19953	86160.7	8548.65	86583.8	5.6662	477.839
69	0.15849	87015.7	9619.83	87545.8	6.30859	485.649
70	0.12589	87840.2	10934.3	88518.1	7.09563	495.599
71	0.1	88906.5	12692.8	89808	8.12499	506.679

File: Z_p20_1.txt
Index	Frequency (Hz)	Z' (Ω)	-Z'' (Ω)	Z (Ω)	-Phase (°)	Time (s)
1	1000000	3141.63	9185.81	9708.19	71.1188	44.4527
2	794330	5416.06	10180.3	11531.3	61.9863	47.3877
3	630960	7967.01	11805.1	14241.9	55.9853	49.7477
4	501190	10514.7	13477.4	17093.8	52.0394	52.2428
5	398110	13963.3	16890	21914.6	50.4187	60.5079
6	316230	17135.7	18515.1	25227.8	47.2157	62.688
7	251190	20426	19137.4	27990.4	43.1344	69.2531
8	199530	24049.6	20050	31311.1	39.8177	71.2431
9	158490	27847	20608.8	34643.6	36.5041	73.6532
10	125890	31615.6	20809.9	37849.7	33.3535	77.7983
11	100000	35291	20669.7	40898.5	30.3572	83.7684
12	79433	38908.7	20166.5	43824.3	27.3978	85.9384
13	63096	42269.7	19461.3	46534.6	24.7217	87.8934
14	50119	45374.1	18467.2	48988.2	22.1462	90.4035
15	39811	48569.8	17476.3	51618.3	19.7897	92.5335
16	31623	51060.1	16211.3	53571.8	17.6144	94.5536
17	25119	53290.7	15097.3	55388	15.8175	96.4586
18	19953	55300.1	14076.6	57063.6	14.2813	98.5886
19	15849	57227.4	13016	58688.9	12.8136	100.614
20	12589	59040.5	12071.8	60262	11.5557	102.784
21	10000	60686.5	11105.6	61694.3	10.3704	106.219
22	7943.3	62118.9	10317.7	62970	9.43052	108.159
23	6309.6	63440.4	9614.91	64164.9	8.61805	110.234
24	5011.9	64643.6	8992.58	65266.1	7.9196	113.084
25	3981.1	65765.3	8446.54	66305.5	7.31869	115.194
26	3162.3	66812.8	7973.16	67286.8	6.80526	117.414
27	2511.9	67781.5	7568.38	68202.8	6.37116	119.594
28	1995.3	68747.5	7231.68	69126.9	6.00497	121.624
29	1584.9	69649.1	6952.23	69995.3	5.70026	123.599
30	1258.9	70573.7	6714.23	70892.4	5.43464	125.579
31	1000	71433.1	6525.21	71730.5	5.21933	127.684
32	794.33	72316.5	6371.25	72596.7	5.03488	129.729
33	630.96	73154.5	6240.59	73420.2	4.87593	131.614
34	501.19	74031.3	6140.63	74285.5	4.74163	133.829
35	398.11	74924.8	6066.87	75170	4.6293	135.739
36	316.23	75763.1	6002.04	76000.5	4.52958	140.164
37	251.19	76610.3	5940.31	76840.3	4.4338	142.409
38	199.53	77468.1	5899.15	77692.4	4.35464	144.885
39	158.49	78329.3	5855.28	78547.8	4.27503	147.03
40	125.89	79163	5798.43	79375.1	4.18924	149.165
41	100	79969.3	5757.63	80176.3	4.11808	151.17
42	79.433	80845.6	5710.25	81047	4.04018	153.305
43	63.096	81734.2	5613.54	81926.7	3.92893	155.55
44	50.119	82523.9	5483.3	82705.9	3.80143	157.67
45	39.811	83333.2	5522.55	83516	3.79149	167.53
46	31.623	84161.6	5444.96	84337.5	3.70168	169.84
47	25.119	84970	5392.67	85140.9	3.63144	172.315
48	19.953	85778	5341.74	85944.2	3.56344	175.005
49	15.849	86508.7	5273.07	86669.3	3.4881	177.435
50	12.589	87292.3	5201.9	87447.2	3.41032	180.285
51	10	88058.7	5109.93	88206.9	3.32107	183.375
52	7.9433	88744.8	5041.05	88887.8	3.25113	186.46
53	6.3096	89472	4994.88	89611.3	3.19528	189.595
54	5.0119	90115.9	4926.71	90250.4	3.12929	192.88
55	3.9811	90764.7	4876.45	90895.6	3.07533	196.04
56	3.1623	91460.8	4881.93	91591	3.05539	198.996
57	2.5119	91970	4876.94	92099.3	3.03541	202.241
58	1.9953	92585.1	4983.24	92719.2	3.08088	205.571
59	1.5849	93105.2	5205.71	93250.7	3.2002	208.976
60	1.2589	93652.3	5378.11	93806.6	3.28668	212.596
61	1	94192.2	5721.26	94365.8	3.47589	218.931
62	0.79433	94771.2	6220.55	94975.1	3.75537	222.836
63	0.63096	95389.1	6790	95630.4	4.07157	227.121
64	0.50119	95889.6	7543.03	96185.8	4.49784	231.591
65	0.39811	96616.1	8591.22	96997.3	5.08145	236.706
66	0.31623	97344.4	9789.53	97835.4	5.7427	241.886
67	0.25119	98333.8	11459	98999.2	6.6468	247.751
68	0.19953	99289.2	13035.9	100141	7.47972	254.427
69	0.15849	100546	15086.2	101671	8.53318	262.417
70	0.12589	101954	17545.4	103453	9.7644	271.492
71	0.1	103936	20622.9	105962	11.2228	282.642

File: Z_p21_1.txt
Index	Frequency (Hz)	Z' (Ω)	-Z'' (Ω)	Z (Ω)	-Phase (°)	Time (s)
1	1000000	3904.09	6579.2	7650.35	59.3152	53.0448
2	794330	5424.36	6680.72	8605.56	50.9254	63.39
3	630960	7042.28	7085.84	9990.14	45.1767	68.7951
4	501190	8653.76	7479.16	11437.9	40.8358	71.5051
5	398110	10821.6	8201.35	13578.2	37.1574	80.0953
6	316230	12344.4	8198.75	14819.1	33.5908	82.2803
7	251190	13818.9	7997.86	15966.5	30.0606	88.9605
8	199530	15338.5	7836.23	17224.3	27.0618	91.1255
9	158490	16750.6	7527.29	18364.2	24.1979	93.5056
10	125890	18049.4	7113.4	19400.6	21.5097	95.1406
11	100000	19199.6	6624.09	20310.1	19.0351	96.8706
12	79433	20241	6083.96	21135.6	16.7295	102.231
13	63096	21135.4	5523.66	21845.3	14.6465	106.846
14	50119	21907.9	4970.6	22464.7	12.7832	114.091
15	39811	22563.9	4424.85	22993.7	11.0951	116.816
16	31623	23083.2	3876.96	23406.5	9.5342	125.351
17	25119	23536.1	3441.02	23786.4	8.3178	128.941
18	19953	23926.1	3054.05	24120.3	7.27417	131.561
19	15849	24263.4	2686.76	24411.7	6.31879	139.691
20	12589	24570.8	2374.94	24685.3	5.52089	150.197
21	10000	24843.8	2081.57	24930.9	4.78941	158.517
22	7943.3	25052.5	1849.48	25120.7	4.22214	164.832
23	6309.6	25250	1648.07	25303.7	3.7344	171.417
24	5011.9	25419.9	1474.37	25462.6	3.31947	183.317
25	3981.1	25592.2	1325.62	25626.5	2.96515	185.422
26	3162.3	25721.6	1197.29	25749.4	2.66508	187.327
27	2511.9	25839.8	1088.55	25862.7	2.41226	189.152
28	1995.3	25962.7	996.266	25981.8	2.19754	191.002
29	1584.9	26074.2	916.907	26090.4	2.01399	192.732
30	1258.9	26180.1	847.102	26193.8	1.85325	194.482
31	1000	26281.7	787.351	26293.5	1.71596	196.567
32	794.33	26374.7	736.721	26385	1.60002	198.748
33	630.96	26468.1	688.616	26477.1	1.49032	200.773
34	501.19	26544.3	647.363	26552.2	1.39705	202.568
35	398.11	26640.5	613.863	26647.6	1.32	204.368
36	316.23	26707.9	584.277	26714.3	1.25323	206.388
37	251.19	26784.2	558.867	26790	1.19533	208.418
38	199.53	26844.7	535.354	26850.1	1.14248	210.473
39	158.49	26919.3	516.265	26924.2	1.0987	212.513
40	125.89	26993.9	500.254	26998.5	1.06169	214.583
41	100	27049	490.494	27053.5	1.03886	216.658
42	79.433	27105	483.239	27109.3	1.02138	218.663
43	63.096	27163.5	476.191	27167.6	1.00432	220.873
44	50.119	27215.1	495.162	27219.6	1.04234	222.968
45	39.811	27283.4	494.648	27287.9	1.03866	232.878
46	31.623	27319.2	507.401	27323.9	1.06404	235.118
47	25.119	27391.4	526.701	27396.5	1.10159	237.403
48	19.953	27441.7	569.828	27447.7	1.18958	240.178
49	15.849	27497.1	613.602	27503.9	1.27835	242.818
50	12.589	27552.1	667.837	27560.1	1.38853	245.613
51	10	27633.3	735.573	27643.1	1.5248	248.413
52	7.9433	27700.4	821.761	27712.6	1.69924	251.448
53	6.3096	27781	924.629	27796.4	1.90626	254.614
54	5.0119	27871.8	1050.54	27891.6	2.15857	257.674
55	3.9811	27963.5	1203.87	27989.4	2.46515	260.859
56	3.1623	28092.6	1383.32	28126.7	2.81905	264.019
57	2.5119	28245.1	1600.65	28290.4	3.24349	267.284
58	1.9953	28367	1848.25	28427.1	3.72784	270.804
59	1.5849	28564.9	2149.5	28645.7	4.30337	274.104
60	1.2589	28803.6	2489.03	28910.9	4.93888	277.494
61	1	29049.2	2877.42	29191.4	5.65688	283.879
62	0.79433	29381.7	3325.84	29569.3	6.45807	287.824
63	0.63096	29719.4	3816.27	29963.5	7.3173	291.909
64	0.50119	30140.6	4380.12	30457.2	8.2685	296.484
65	0.39811	30591.7	5017.25	31000.4	9.31399	301.444
66	0.31623	31121.2	5748.87	31647.8	10.466	306.685
67	0.25119	31673.6	6572.77	32348.4	11.7234	312.8
68	0.19953	32358.3	7647.44	33249.7	13.2971	319.5
69	0.15849	33002.6	8842.2	34166.6	14.9987	327.295
70	0.12589	33821.3	10190.7	35323.2	16.768	336.46
71	0.1	34404.1	11699.7	36339	18.7814	347.15

File: Z_p22_1.txt
Index	Frequency (Hz)	Z' (Ω)	-Z'' (Ω)	Z (Ω)	-Phase (°)	Time (s)
1	1000000	4336.93	7624.04	8771.26	60.3666	29.3433
2	794330	6207.11	7591.47	9806.05	50.7291	32.5734
3	630960	8184.37	8026.09	11463.1	44.4406	35.3384
4	501190	10096.3	8359.45	13107.8	39.6239	39.3035
5	398110	12820.7	9291.4	15833.5	35.9316	48.3387
6	316230	14686.1	9227.07	17344.1	32.1406	51.1337
7	251190	16158.8	8782.95	18391.5	28.5258	59.5489
8	199530	17805.9	8469.29	19717.5	25.4379	61.9589
9	158490	19314.7	8020.83	20913.9	22.5517	64.904
10	125890	20675.9	7464.14	21982	19.8499	72.9641
11	100000	21816.8	6844.16	22865.2	17.4172	76.2242
12	79433	22854.7	6213.41	23684.3	15.2092	83.1043
13	63096	23706.5	5594.52	24357.7	13.2783	87.1194
14	50119	24468.9	4976.25	24969.8	11.4955	91.2145
15	39811	25092.5	4358.81	25468.2	9.85451	96.8046
16	31623	25568.1	3807.02	25850	8.46897	102.685
17	25119	25973.4	3383.82	26192.9	7.4227	108.945
18	19953	26345.7	3002.02	26516.1	6.50066	118.185
19	15849	26660.5	2653.09	26792.2	5.68301	126.28
20	12589	26926.5	2344.68	27028.4	4.97659	131.105
21	10000	27204.1	2063.15	27282.2	4.33698	140.515
22	7943.3	27426.8	1848.74	27489	3.85627	143.13
23	6309.6	27635.8	1660.01	27685.7	3.43747	145.295
24	5011.9	27800.1	1497.98	27840.4	3.08434	149.261
25	3981.1	27963.7	1357.95	27996.6	2.78016	155.446
26	3162.3	28113.9	1239.37	28141.2	2.52418	159.511
27	2511.9	28254.9	1136.33	28277.8	2.30303	163.266
28	1995.3	28373.6	1044.86	28392.8	2.10897	166.391
29	1584.9	28484.5	965.853	28500.8	1.94204	170.301
30	1258.9	28616	898.786	28630.1	1.79898	174.061
31	1000	28721.4	837.588	28733.6	1.67041	177.036
32	794.33	28820.3	781.715	28830.9	1.5537	180.601
33	630.96	28937.3	734.09	28946.7	1.45318	184.001
34	501.19	29024.5	687.549	29032.6	1.357	188.416
35	398.11	29113.8	646.61	29120.9	1.27232	191.986
36	316.23	29203.8	610.109	29210.2	1.19682	195.236
37	251.19	29272.6	575.97	29278.3	1.12721	197.796
38	199.53	29363.2	544.564	29368.3	1.06247	200.602
39	158.49	29433.3	516.38	29437.9	1.0051	204.987
40	125.89	29487.3	489.614	29491.3	0.951267	208.387
41	100	29541	464.533	29544.7	0.900903	211.897
42	79.433	29593.8	444.074	29597.2	0.859694	216.232
43	63.096	29647.1	421.719	29650.1	0.814956	219.932
44	50.119	29715.1	403.423	29717.8	0.77782	223.532
45	39.811	29755.6	397.977	29758.2	0.766279	234.572
46	31.623	29813	389.506	29815.5	0.748524	238.082
47	25.119	29866.1	383.386	29868.6	0.735455	241.112
48	19.953	29906.4	395.939	29909	0.758509	244.322
49	15.849	29939.2	403.342	29941.9	0.771843	247.682
50	12.589	29990.3	418.911	29993.2	0.800268	251.187
51	10	30040	436.58	30043.2	0.832637	254.523
52	7.9433	30076.9	470.079	30080.6	0.895415	258.573
53	6.3096	30134.2	502.722	30138.4	0.955764	262.888
54	5.0119	30166.6	554.674	30171.7	1.05338	267.048
55	3.9811	30229	609.326	30235.1	1.15476	270.958
56	3.1623	30294.6	682.875	30302.3	1.29129	275.288
57	2.5119	30351.3	779.27	30361.3	1.47075	279.773
58	1.9953	30416	884.773	30428.9	1.66621	285.208
59	1.5849	30491.9	1005.87	30508.4	1.8894	289.543
60	1.2589	30602	1150.59	30623.6	2.15323	295.948
61	1	30693.1	1339.67	30722.3	2.49922	305.818
62	0.79433	30810.7	1562.52	30850.3	2.90318	313.074
63	0.63096	30971.3	1807.67	31024	3.34034	318.094
64	0.50119	31106.1	2102.59	31177.1	3.86696	324.274
65	0.39811	31264	2454.46	31360.2	4.48893	330.259
66	0.31623	31475.9	2890.76	31608.3	5.24736	336.349
67	0.25119	31662.3	3341.65	31838.2	6.02471	343.584
68	0.19953	31957.9	3910.71	32196.2	6.97665	380.73
69	0.15849	32227	4719.14	32570.7	8.33086	393.15
70	0.12589	32446.8	5554.66	32918.8	9.71448	410.65
71	0.1	32925.7	6528.7	33566.7	11.2155	424.571

File: Z_p23_1.txt
Index	Frequency (Hz)	Z' (Ω)	-Z'' (Ω)	Z (Ω)	-Phase (°)	Time (s)
1	1000000	4335.96	8647.56	9673.72	63.3704	96.4616
2	794330	6533.11	8937.65	11070.8	53.8345	127.162
3	630960	8936.96	9524.63	13060.9	46.8232	132.257
4	501190	11047.7	10259.2	15076.6	42.8807	135.357
5	398110	14208	11917.6	18544.4	39.9898	144.533
6	316230	16430.6	12498.8	20644.2	37.2604	146.758
7	251190	18492.5	12180.8	22143.7	33.3724	153.468
8	199530	20683.4	12292.7	24060.6	30.7243	155.618
9	158490	22793.8	12270.1	25886.6	28.294	158.078
10	125890	24882.2	12141.3	27686.3	26.01	160.773
11	100000	26843.2	11917.6	29369.8	23.9397	163.508
12	79433	28751.5	11612.8	31008.2	21.9939	166.473
13	63096	30672.6	11273.4	32678.7	20.1804	169.513
14	50119	32445.4	10815.7	34200.6	18.4358	173.928
15	39811	34170.1	10218.9	35665.4	16.6498	193.008
16	31623	35694	9545.54	36948.3	14.9721	203.519
17	25119	37109.2	9015.01	38188.5	13.6545	206.369
18	19953	38429.4	8388.76	39334.3	12.3139	209.614
19	15849	39613	7717.62	40357.8	11.0246	212.479
20	12589	40691.1	7093.85	41304.9	9.88921	215.764
21	10000	41743.5	6398.95	42231.1	8.71515	220.729
22	7943.3	42571.8	5806.72	42966	7.76711	223.119
23	6309.6	43308.9	5251.06	43626.1	6.91318	225.599
24	5011.9	43973.7	4737.76	44228.1	6.14938	228.839
25	3981.1	44524.3	4270.72	44728.6	5.47899	232.089
26	3162.3	45033.1	3853.85	45197.7	4.89135	234.489
27	2511.9	45499.1	3481.52	45632.1	4.37566	237.584
28	1995.3	45889.3	3150.81	45997.3	3.92783	240.439
29	1584.9	46224.7	2856.7	46312.9	3.5364	243.794
30	1258.9	46560.3	2606.4	46633.2	3.20402	247.264
31	1000	46843.5	2378.87	46903.9	2.90717	250.369
32	794.33	47134.7	2186.41	47185.4	2.65584	253.825
33	630.96	47385.2	2018.1	47428.2	2.43871	256.915
34	501.19	47626.1	1871.32	47662.9	2.2501	260.22
35	398.11	47865.7	1753.55	47897.8	2.09808	263.075
36	316.23	48019.2	1646.8	48047.5	1.96416	268.065
37	251.19	48232.9	1565.32	48258.3	1.85879	271.295
38	199.53	48421.5	1495.01	48444.6	1.76844	273.885
39	158.49	48604.9	1442.01	48626.3	1.69935	277.12
40	125.89	48779.8	1402.91	48800	1.64738	280.14
41	100	48914.8	1381.5	48934.4	1.61778	282.92
42	79.433	49111.6	1365.59	49130.6	1.59274	285.865
43	63.096	49245.3	1377.45	49264.6	1.60222	288.595
44	50.119	49463.1	1383.2	49482.5	1.60182	291.405
45	39.811	49587.3	1420.16	49607.6	1.64048	301.755
46	31.623	49761	1465.39	49782.6	1.68679	305.27
47	25.119	49934.4	1528.55	49957.7	1.75334	308.191
48	19.953	50123.3	1633.34	50149.9	1.86641	311.831
49	15.849	50307.3	1744.93	50337.5	1.98654	315.611
50	12.589	50509.6	1882.68	50544.7	2.13464	319.386
51	10	50746.4	2046.98	50787.6	2.30992	323.416
52	7.9433	50969.9	2230.68	51018.7	2.50593	328.676
53	6.3096	51233.8	2443.39	51292	2.73042	333.326
54	5.0119	51507.5	2707.47	51578.6	3.00896	337.311
55	3.9811	51781.8	3003.95	51868.8	3.3201	341.476
56	3.1623	52097.2	3365.93	52205.8	3.69667	345.361
57	2.5119	52416.2	3786.37	52552.8	4.13168	349.151
58	1.9953	52756.3	4235.3	52926	4.58988	353.141
59	1.5849	53127.4	4877.42	53350.9	5.24539	358.431
60	1.2589	53549.4	5597.43	53841.2	5.96735	362.967
61	1	54030.4	6518.78	54422.2	6.87949	371.047
62	0.79433	54577.4	7613.9	55106	7.94187	376.277
63	0.63096	55194.1	8899.61	55907	9.15965	382.142
64	0.50119	55800.7	10358.4	56753.9	10.5163	387.387
65	0.39811	56595.2	12411.3	57940.1	12.3691	392.222
66	0.31623	57697.6	14617.3	59520.4	14.2164	398.097
67	0.25119	58939.7	17321	61432.2	16.3769	404.257
68	0.19953	60395.7	20927.6	63918.8	19.1116	411.292
69	0.15849	62011.7	24445.7	66656.1	21.5149	419.418
70	0.12589	64194	29030.2	70453	24.3337	428.738
71	0.1	67102.8	34359.6	75388.1	27.1144	440.003