Folder: Streamlit_cement_impedance/data/20210121 (part 2)

File: Z_p24_1.txt
Index	Frequency (Hz)	Z' (Ω)	-Z'' (Ω)	Z (Ω)	-Phase (°)	Time (s)
1	1000000	3263.38	7635.83	8303.95	66.8593	26.0203
2	794330	5214.42	8168.84	9691.24	57.4487	29.1853
3	630960	7021.83	9088.15	11484.8	52.309	32.3254
4	501190	9047.83	10106.9	13565.1	48.1647	34.9704
5	398110	11661	11950.3	16697	45.7018	45.3006
6	316230	13955.1	12618.7	18814.2	42.1211	47.5907
7	251190	15927.3	13071.9	20604.7	39.3766	54.9058
8	199530	18254.5	13640.5	22787.9	36.7687	57.4009
9	158490	20641.3	14060.9	24975.4	34.2628	59.7109
10	125890	23054.2	14344.4	27152.5	31.89	62.6709
11	100000	25479.8	14495.5	29314.5	29.6356	65.351
12	79433	27926.1	14520.5	31475.6	27.4726	68.6711
13	63096	30407.3	14407.8	33648	25.3529	71.5911
14	50119	32790.3	14133	35706.4	23.3166	74.3662
15	39811	35221.4	13709.1	37795.3	21.2673	77.3012
16	31623	37394.4	12976	39581.8	19.1369	80.1263
17	25119	39318.2	12251	41182.6	17.3062	82.6413
18	19953	41285.4	11637.1	42894.2	15.7415	85.5764
19	15849	42992.6	10794.5	44327.1	14.0943	87.9064
20	12589	44616.5	9988.22	45720.8	12.6187	90.5665
21	10000	46070.3	9118.78	46964	11.196	95.3016
22	7943.3	47352.1	8317.14	48077	9.96207	97.5016
23	6309.6	48434.2	7545.04	49018.4	8.85432	100.207
24	5011.9	49398.4	6816.42	49866.5	7.85655	103.052
25	3981.1	50222.7	6146.4	50597.4	6.97733	105.267
26	3162.3	50960.5	5535.27	51260.3	6.19909	108.147
27	2511.9	51599.2	4983.62	51839.3	5.51671	111.072
28	1995.3	52182.8	4489.72	52375.6	4.91752	113.862
29	1584.9	52701.9	4059.17	52858	4.4043	116.252
30	1258.9	53153.7	3664.44	53279.9	3.94375	118.782
31	1000	53561.1	3327.86	53664.4	3.55533	121.957
32	794.33	53923.8	3030.38	54008.9	3.21649	125.032
33	630.96	54293.2	2773.32	54364	2.92415	128.312
34	501.19	54609.3	2547.02	54668.7	2.67038	131.207
35	398.11	54911.1	2353.64	54961.5	2.45435	133.482
36	316.23	55187.8	2187.01	55231.1	2.26936	136.167
37	251.19	55413	2046.38	55450.8	2.11495	138.712
38	199.53	55664.6	1926.28	55697.9	1.98194	141.252
39	158.49	55896.9	1827.71	55926.8	1.87278	144.277
40	125.89	56105.8	1744.02	56132.9	1.78043	147.203
41	100	56313.6	1676.74	56338.5	1.70549	149.843
42	79.433	56514.7	1626.05	56538.1	1.64807	153.378
43	63.096	56701.4	1583.28	56723.5	1.59946	155.893
44	50.119	56910.6	1542.59	56931.5	1.55265	158.668
45	39.811	57110.2	1540.95	57131	1.54559	169.453
46	31.623	57324.2	1533.7	57344.7	1.53258	172.803
47	25.119	57500.9	1543.83	57521.7	1.53795	175.878
48	19.953	57700.7	1591.42	57722.6	1.57985	179.433
49	15.849	57878.6	1634.95	57901.7	1.61805	182.433
50	12.589	58078.3	1687.74	58102.8	1.66454	186.253
51	10	58274.1	1765.27	58300.8	1.73511	189.743
52	7.9433	58456.7	1876.92	58486.8	1.83902	193.083
53	6.3096	58670.8	1998.93	58704.8	1.95133	196.858
54	5.0119	58871.6	2169.25	58911.5	2.11023	200.479
55	3.9811	59119.7	2374.1	59167.4	2.29962	204.849
56	3.1623	59367.1	2628.15	59425.3	2.5348	209.624
57	2.5119	59593.1	2930.66	59665.1	2.81541	213.314
58	1.9953	59884.7	3292.21	59975.1	3.14672	217.354
59	1.5849	60147.8	3796.03	60267.5	3.61125	221.304
60	1.2589	60505.3	4313.95	60658.9	4.07822	225.429
61	1	60863.6	4941.47	61063.9	4.64162	232.634
62	0.79433	61271.1	5763.22	61541.6	5.37349	237.794
63	0.63096	61648.5	6709.89	62012.6	6.21169	242.824
64	0.50119	62172	7820.9	62662	7.16984	247.989
65	0.39811	62683.8	9396.86	63384.2	8.52566	253.504
66	0.31623	63378.6	11077.9	64339.5	9.9145	259.57
67	0.25119	64207.5	13234.5	65557.2	11.6467	266.005
68	0.19953	64840.1	15911.5	66763.9	13.7877	273.29
69	0.15849	66242.9	19235.9	68979.3	16.1925	282.92
70	0.12589	67528.5	22922.2	71312.9	18.7495	292.62
71	0.1	69382.5	27582.7	74664.1	21.6801	304.6

File: Z_p25_1.txt
Index	Frequency (Hz)	Z' (Ω)	-Z'' (Ω)	Z (Ω)	-Phase (°)	Time (s)
1	1000000	2603.33	8584.53	8970.59	73.1296	56.6448
2	794330	4933.11	9626.28	10816.7	62.8666	61.0949
3	630960	7127.57	11221.7	13293.9	57.578	64.8949
4	501190	9630.99	12772.2	15996.4	52.9815	79.3602
5	398110	13093.3	15655.1	20408.7	50.0922	91.7454
6	316230	15736.8	16993.4	23160.8	47.1986	105.541
7	251190	18680.1	17582.2	25653	43.2658	139.221
8	199530	21808.1	18510.8	28604.9	40.3246	140.966
9	158490	24999.5	19220.5	31534.2	37.5544	142.751
10	125890	28247.6	19808.4	34500.8	35.0398	144.771
11	100000	31530.3	20231.1	37462.7	32.6859	146.841
12	79433	34824.8	20549.5	40435.7	30.5442	148.881
13	63096	38285.9	20771.2	43557.5	28.4811	150.672
14	50119	41724.3	20894.5	46663.6	26.6006	153.042
15	39811	45221.3	20548.2	49670.8	24.4367	154.957
16	31623	48492.9	20033.7	52468.1	22.4468	156.847
17	25119	51594.1	19641.4	55206.3	20.8414	158.857
18	19953	54803.6	18924.9	57979.2	19.051	160.832
19	15849	57766	18101.5	60535.8	17.3989	163.172
20	12589	60677.6	17017.3	63018.8	15.6664	165.427
21	10000	63377.3	15997	65365	14.166	168.917
22	7943.3	65779.7	14893.5	67444.7	12.7575	170.387
23	6309.6	67911	13761	69291.2	11.4549	171.962
24	5011.9	69830.9	12640	70965.6	10.2599	174.467
25	3981.1	71531.3	11560.8	72459.5	9.18065	176.577
26	3162.3	73022.3	10527.6	73777.3	8.20381	178.287
27	2511.9	74384.7	9571.17	74998	7.33202	180.177
28	1995.3	75535.9	8683.22	76033.4	6.55764	182.147
29	1584.9	76576.5	7871.56	76980	5.86901	184.042
30	1258.9	77516	7138.19	77844	5.26134	185.907
31	1000	78363.9	6500.08	78633	4.74168	187.767
32	794.33	79130.2	5926.54	79351.8	4.28323	190.107
33	630.96	79801.3	5418.21	79985	3.88421	192.687
34	501.19	80452.9	4977.86	80606.7	3.54055	194.967
35	398.11	80993	4594.21	81123.2	3.24654	197.022
36	316.23	81506.1	4278.95	81618.4	3.00518	199.062
37	251.19	82004.7	4002.06	82102.3	2.79398	201.982
38	199.53	82477.6	3795.25	82564.9	2.63464	204.143
39	158.49	82914.8	3619.63	82993.8	2.49965	206.108
40	125.89	83346.5	3492.11	83419.6	2.39921	208.423
41	100	83711.9	3403.15	83781	2.32797	210.518
42	79.433	84109.8	3353.47	84176.7	2.28318	212.983
43	63.096	84493.3	3276.84	84556.8	2.22094	215.553
44	50.119	84916.7	3382.39	84984	2.28099	218.533
45	39.811	85298.8	3439.62	85368.1	2.30916	228.393
46	31.623	85713.1	3540.97	85786.2	2.36565	230.558
47	25.119	86170	3694.4	86249.2	2.45496	232.548
48	19.953	86553	3915.31	86641.5	2.59007	235.113
49	15.849	87032.3	4160.39	87131.6	2.73682	237.463
50	12.589	87515.9	4482.17	87630.6	2.93187	239.813
51	10	88010.4	4878.82	88145.5	3.17292	242.688
52	7.9433	88606.9	5319.94	88766.5	3.4359	245.448
53	6.3096	89160.8	5862.78	89353.4	3.76207	248.518
54	5.0119	89811.9	6481.27	90045.5	4.12759	251.613
55	3.9811	90543.3	7230.12	90831.6	4.56553	255.748
56	3.1623	91305.4	8109.6	91664.8	5.07561	258.969
57	2.5119	92144.3	9075.49	92590.1	5.62504	262.449
58	1.9953	93099.6	10288	93666.3	6.30589	265.644
59	1.5849	94136.1	11686.3	94858.8	7.07666	269.399
60	1.2589	95442.6	13261.4	96359.5	7.91041	272.934
61	1	96781.6	15160.3	97961.8	8.90274	279.394
62	0.79433	98259.2	17379.1	99784.3	10.0302	285.019
63	0.63096	99964.7	19847.1	101916	11.2295	289.044
64	0.50119	101960	23094.7	104543	12.7626	293.439
65	0.39811	104303	26513.8	107620	14.2626	298.824
66	0.31623	106431	31041.5	110865	16.2597	304.259
67	0.25119	109732	36315.8	115585	18.3119	310.294
68	0.19953	113321	41502.2	120681	20.1146	335.275
69	0.15849	117590	48269.3	127111	22.3176	343.26
70	0.12589	122067	56213.9	134389	24.7269	356.125
71	0.1	128303	64537.5	143620	26.7029	367.776

File: Z_p26_1.txt
Index	Frequency (Hz)	Z' (Ω)	-Z'' (Ω)	Z (Ω)	-Phase (°)	Time (s)
1	1000000	3397.65	9795.39	10367.9	70.8703	53.0748
2	794330	6190.8	10558.7	12239.7	59.6159	57.3848
3	630960	8867.58	12018	14935.4	53.578	62.0999
4	501190	12092.3	13348.8	18011.6	47.8275	69.9651
5	398110	15969	16327.5	22838.5	45.6359	84.3553
6	316230	19639.6	17073.9	26023.7	41.0025	87.6754
7	251190	22198.8	17259.5	28118.9	37.8649	107.856
8	199530	25433.1	17527.4	30887.7	34.573	112.626
9	158490	28600.3	17519.4	33539.7	31.49	116.171
10	125890	31661.1	17296.9	36077.8	28.6483	118.531
11	100000	34558.2	16853.2	38448.6	25.9974	121.356
12	79433	37415.3	16267.1	40798.5	23.498	123.746
13	63096	39947	15570.8	42874.4	21.2952	126.786
14	50119	42580.4	14596.9	45012.9	18.9221	129.601
15	39811	44943.7	13629.5	46964.9	16.8703	131.831
16	31623	46804.8	12353.9	48407.7	14.7858	133.996
17	25119	48536.1	11380.2	49852.4	13.1957	136.816
18	19953	50156	10371.1	51217.1	11.6828	138.936
19	15849	51541.5	9319.49	52377.3	10.2492	141.391
20	12589	52773.1	8372.15	53433.1	9.01452	143.746
21	10000	53841.3	7453.21	54354.8	7.88132	147.447
22	7943.3	54761.8	6650.1	55164.1	6.92391	149.752
23	6309.6	55525.7	5925.84	55841	6.09169	151.932
24	5011.9	56188.9	5274.4	56435.9	5.36259	153.722
25	3981.1	56755.8	4709.97	56950.9	4.74391	155.302
26	3162.3	57278.2	4209.24	57432.7	4.20297	157.147
27	2511.9	57697.8	3777.31	57821.3	3.74564	159.087
28	1995.3	58104.2	3399.49	58203.6	3.34838	160.962
29	1584.9	58476	3078.25	58557	3.01334	162.697
30	1258.9	58809.7	2806.87	58876.6	2.73254	164.737
31	1000	59117.2	2555.93	59172.4	2.47564	166.662
32	794.33	59409.7	2345.2	59456	2.26057	168.397
33	630.96	59665.7	2174.78	59705.3	2.08747	170.387
34	501.19	59929.3	2022.02	59963.4	1.93243	172.177
35	398.11	60155.8	1898.96	60185.8	1.80807	174.167
36	316.23	60398.7	1782.87	60425	1.69079	176.092
37	251.19	60593.8	1692.77	60617.4	1.60022	177.847
38	199.53	60797	1619.59	60818.5	1.52596	179.717
39	158.49	61035.3	1556.59	61055.1	1.46091	181.552
40	125.89	61180.9	1505.81	61199.4	1.40991	183.572
41	100	61359	1474.93	61376.8	1.37699	185.512
42	79.433	61539.6	1453.15	61556.8	1.35269	187.617
43	63.096	61729.8	1450	61746.8	1.3456	189.657
44	50.119	61870.9	1401.91	61886.8	1.29803	191.497
45	39.811	62072.5	1475.6	62090.1	1.36179	201.298
46	31.623	62236	1510.83	62254.3	1.39063	203.483
47	25.119	62427.9	1561.83	62447.4	1.43313	205.728
48	19.953	62604	1661.17	62626	1.51996	208.158
49	15.849	62790	1763.49	62814.8	1.60876	210.743
50	12.589	62978	1899.99	63006.7	1.72803	213.348
51	10	63185.2	2079.58	63219.4	1.88506	216.913
52	7.9433	63391.6	2277.12	63432.5	2.05727	219.893
53	6.3096	63647.1	2541.5	63697.8	2.28667	222.923
54	5.0119	63879.2	2826.43	63941.7	2.53349	225.793
55	3.9811	64148.9	3189.79	64228.2	2.84668	228.748
56	3.1623	64450.5	3634.21	64552.9	3.22735	232.053
57	2.5119	64811.1	4160.86	64944.6	3.67333	235.198
58	1.9953	65245.8	4741.93	65417.9	4.15683	238.483
59	1.5849	65528.6	5491.21	65758.2	4.79013	241.738
60	1.2589	65972	6366.03	66278.4	5.51175	244.923
61	1	66532.4	7508.25	66954.7	6.43865	250.878
62	0.79433	67081.6	8837.23	67661.2	7.50484	254.319
63	0.63096	67854.6	10300.8	68632	8.63196	258.439
64	0.50119	68494.5	12286.7	69587.8	10.1697	262.814
65	0.39811	69588	14511.2	71084.9	11.7791	267.529
66	0.31623	70646.8	17188.8	72707.8	13.6747	272.759
67	0.25119	71737.7	20579.7	74631.3	16.0068	278.509
68	0.19953	73830.6	24408.6	77760.7	18.294	285.369
69	0.15849	75987.9	29248.7	81422.7	21.0523	293.254
70	0.12589	78466.6	34447.3	85695	23.7018	302.424
71	0.1	80567.3	40556.7	90199.4	26.7202	313.16

File: Z_p27_1.txt
Index	Frequency (Hz)	Z' (Ω)	-Z'' (Ω)	Z (Ω)	-Phase (°)	Time (s)
1	1000000	2914.88	7466	8014.84	68.6733	94.6925
2	794330	4703.38	8216.87	9467.77	60.213	96.4726
3	630960	6560.35	9351.38	11423.1	54.9489	98.5476
4	501190	8718.17	10480.1	13632.3	50.2436	100.698
5	398110	11374.9	12520.1	16915.8	47.7439	107.748
6	316230	13720.2	13192.8	19034	43.8773	109.528
7	251190	16162.5	13614.8	21132.6	40.1097	115.343
8	199530	18752.2	14023.4	23415.8	36.7902	117.268
9	158490	21312	14168.1	25591.8	33.6158	119.213
10	125890	23864.7	14110	27723.9	30.5938	121.038
11	100000	26286.9	13842.5	29708.8	27.771	122.913
12	79433	28604	13445.6	31606.5	25.1763	124.808
13	63096	30849	12904.5	33439.3	22.7001	126.738
14	50119	32855.4	12283.5	35076.5	20.4991	128.563
15	39811	34818.1	11488.4	36664.5	18.2606	130.488
16	31623	36457.9	10630	37976	16.2551	132.478
17	25119	37866	9861.58	39129.1	14.5975	134.338
18	19953	39239.2	9192.86	40301.7	13.1853	136.083
19	15849	40440.6	8465.27	41317.1	11.8228	138.008
20	12589	41636.9	7835.47	42367.8	10.6576	139.763
21	10000	42664	7173.01	43262.8	9.54376	143.178
22	7943.3	43587.6	6641.37	44090.7	8.66342	144.993
23	6309.6	44398.6	6172.08	44825.6	7.91426	147.514
24	5011.9	45152.3	5753.78	45517.4	7.26209	149.274
25	3981.1	45889.7	5396.82	46205.9	6.70742	151.184
26	3162.3	46542.2	5089	46819.6	6.24002	152.914
27	2511.9	47146.5	4827.17	47393	5.84595	154.939
28	1995.3	47745.4	4606.17	47967	5.51048	156.819
29	1584.9	48335.4	4434.14	48538.4	5.24147	158.669
30	1258.9	48901.7	4282.83	49088.9	5.00522	160.439
31	1000	49454.1	4174.18	49629.9	4.82462	162.319
32	794.33	50010.8	4086.16	50177.5	4.671	164.324
33	630.96	50569.6	4015.34	50728.8	4.53988	166.144
34	501.19	51134.5	3967.08	51288.2	4.43619	168.004
35	398.11	51655.1	3930.74	51804.5	4.35158	169.714
36	316.23	52212.4	3904.09	52358.1	4.27623	171.479
37	251.19	52758.5	3888.06	52901.5	4.21483	173.019
38	199.53	53340.6	3881.79	53481.6	4.16229	174.624
39	158.49	53857.6	3879.31	53997.1	4.11985	176.754
40	125.89	54410.9	3880.43	54549.1	4.07926	178.724
41	100	54970.3	3880.38	55107.1	4.03784	180.494
42	79.433	55540	3884.62	55675.7	4.0009	182.359
43	63.096	56121.1	3894.58	56256.1	3.96973	184.454
44	50.119	56715.8	3850.24	56846.3	3.88365	186.514
45	39.811	57236.3	3894.86	57368.7	3.89291	196.024
46	31.623	57829.7	3885.18	57960.1	3.84354	198.304
47	25.119	58398.2	3882.64	58527.1	3.80375	200.49
48	19.953	58974.4	3891.48	59102.6	3.77524	202.795
49	15.849	59550.5	3885.71	59677.1	3.73329	205.23
50	12.589	60085.7	3880.99	60210.9	3.69566	207.975
51	10	60662.6	3874.33	60786.2	3.65434	210.59
52	7.9433	61212.2	3880.81	61335	3.62766	213.32
53	6.3096	61727.7	3876.54	61849.3	3.59349	216.22
54	5.0119	62247.2	3893.11	62368.9	3.57877	219.19
55	3.9811	62779.9	3944.33	62903.7	3.59505	222.195
56	3.1623	63233.9	4012.47	63361.1	3.6308	225.355
57	2.5119	63704.2	4151.26	63839.4	3.72838	228.42
58	1.9953	64217.7	4348.85	64364.8	3.87418	231.895
59	1.5849	64677.8	4509.14	64834.8	3.98803	235.19
60	1.2589	65144.6	4747.05	65317.3	4.16775	238.71
61	1	65603.2	5215.33	65810.2	4.54535	245.145
62	0.79433	66143.8	5684.1	66387.6	4.91168	249.225
63	0.63096	66583.7	6267.99	66878.1	5.3778	253.065
64	0.50119	67064	7182.87	67447.6	6.11334	257.461
65	0.39811	67564.7	8114.81	68050.3	6.84866	262.156
66	0.31623	68157.9	9414.89	68805.1	7.8647	267.596
67	0.25119	68715.9	11015.3	69593.2	9.10716	273.751
68	0.19953	69628.6	13273.2	70882.5	10.7927	280.556
69	0.15849	70478.1	15710.4	72207.9	12.5664	288.171
70	0.12589	71630.1	18595.7	74004.6	14.5531	297.286
71	0.1	72297.8	22103.5	75601.2	16.9999	307.831

File: Z_p28_1.txt
Index	Frequency (Hz)	Z' (Ω)	-Z'' (Ω)	Z (Ω)	-Phase (°)	Time (s)
1	1000000	2856.89	8403.02	8875.39	71.2228	40.2015
2	794330	4947.99	9314.4	10547.1	62.0219	42.1216
3	630960	7082.23	10765.9	12886.5	56.6615	44.0866
4	501190	9465.09	12226.3	15461.9	52.2546	46.3216
5	398110	12538	15095.4	19623.2	50.2876	52.1818
6	316230	15304.4	16837.6	22753.6	47.7309	54.2068
7	251190	18222.5	17095.2	24986.1	43.1718	59.8819
8	199530	21416.6	17960.3	27950.7	39.9837	61.8369
9	158490	24731	18530.6	30903.2	36.8436	63.972
10	125890	28097.6	18804.5	33809.6	33.7927	65.917
11	100000	31419	18823	36625.9	30.9257	67.742
12	79433	34707.4	18546.9	39352.1	28.119	69.8071
13	63096	37880.9	18010.5	41944.5	25.4287	71.8921
14	50119	40900.9	17362	44433.4	23.0007	73.7872
15	39811	43782.9	16309.2	46721.8	20.4305	75.9722
16	31623	46270.3	15141	48684.6	18.1197	78.0972
17	25119	48472.7	14143.4	50493.9	16.2662	79.8723
18	19953	50414.9	13081.2	52084.3	14.5458	82.0223
19	15849	52283.5	12053.4	53654.9	12.9821	84.0923
20	12589	53873.9	11028.9	54991.2	11.5695	86.0374
21	10000	55350.2	10110.6	56266	10.3519	89.2924
22	7943.3	56618.9	9287.95	57375.6	9.31602	91.1175
23	6309.6	57759.5	8555.39	58389.7	8.42544	93.0625
24	5011.9	58798.9	7906.59	59328.1	7.65853	95.0625
25	3981.1	59746.9	7348.18	60197	7.01151	97.1176
26	3162.3	60615.7	6862.73	61002.9	6.45935	99.1276
27	2511.9	61445.5	6467.14	61784.9	6.00826	101.198
28	1995.3	62197.8	6123.35	62498.5	5.62264	103.088
29	1584.9	62943.8	5860.25	63216	5.31907	104.983
30	1258.9	63689	5632.95	63937.6	5.05435	106.903
31	1000	64412.8	5463.65	64644.1	4.84836	108.703
32	794.33	65075	5321	65292.2	4.67451	110.608
33	630.96	65794.2	5225.39	66001.3	4.54091	112.473
34	501.19	66512.9	5143.81	66711.5	4.4222	114.623
35	398.11	67224.8	5095.63	67417.7	4.33472	116.518
36	316.23	67907.7	5059.04	68095.9	4.26059	118.358
37	251.19	68619.6	5038.51	68804.3	4.19951	120.333
38	199.53	69358.3	5027.44	69540.3	4.14583	122.483
39	158.49	70073.4	5031.05	70253.7	4.10661	124.503
40	125.89	70759.4	5017.63	70937.1	4.05612	126.468
41	100	71491	5022.65	71667.3	4.01875	128.518
42	79.433	72248.8	5014.02	72422.6	3.96993	131.003
43	63.096	72954.8	5025.83	73127.7	3.94086	133.118
44	50.119	73662.1	4999.54	73831.5	3.88279	135.273
45	39.811	74406.9	4978.68	74573.3	3.82804	145.138
46	31.623	75158	4959.49	75321.5	3.77534	147.114
47	25.119	75874.9	4925.3	76034.6	3.71405	149.384
48	19.953	76652.7	4920.19	76810.4	3.67267	152.024
49	15.849	77397.9	4878.31	77551.5	3.60652	154.609
50	12.589	78100.6	4844.46	78250.7	3.54942	157.349
51	10	78794.1	4793.71	78939.8	3.48149	160.399
52	7.9433	79496.5	4746.88	79638.1	3.41718	163.414
53	6.3096	80181	4691.07	80318.2	3.34833	166.324
54	5.0119	80785.2	4638.98	80918.3	3.28652	169.129
55	3.9811	81443.2	4612.1	81573.7	3.24118	172.174
56	3.1623	82004.7	4609.33	82134.2	3.2171	175.234
57	2.5119	82523.8	4649.24	82654.6	3.22453	178.474
58	1.9953	83073.5	4727.55	83208	3.25708	181.959
59	1.5849	83593.8	4883.87	83736.3	3.34364	185.229
60	1.2589	84153.1	5090.19	84306.9	3.46144	188.869
61	1	84596.7	5412.64	84769.7	3.66089	195.094
62	0.79433	85129.9	5867.27	85331.8	3.94267	199.019
63	0.63096	85605.7	6411.23	85845.4	4.28303	203.005
64	0.50119	86145.5	7225.21	86448	4.7943	207.51
65	0.39811	86645.8	8241.65	87036.9	5.43356	212.505
66	0.31623	87181.5	9566.29	87704.7	6.26193	217.865
67	0.25119	87925.9	11166.9	88632.1	7.23803	223.915
68	0.19953	88500	12950.2	89442.5	8.32498	230.94
69	0.15849	89297.2	15294.9	90597.6	9.71934	238.73
70	0.12589	90251	18392.6	92106.1	11.5188	247.735
71	0.1	92016.5	22137.4	94642	13.5272	258.501

File: Z_p29_1.txt
Index	Frequency (Hz)	Z' (Ω)	-Z'' (Ω)	Z (Ω)	-Phase (°)	Time (s)
1	1000000	2818.11	7395.71	7914.44	69.1408	60.4969
2	794330	4666.55	8187.55	9424.05	60.3187	74.9822
3	630960	6470.71	9237.54	11278.4	54.9895	83.8173
4	501190	8498.5	10448.7	13468.5	50.8766	100.508
5	398110	11089.9	12442.3	16667.3	48.2891	116.793
6	316230	13381.5	13716.4	19162.6	45.708	119.713
7	251190	15527	13937.7	20865	41.9125	140.523
8	199530	18029.8	14669	23243.4	39.1317	166.559
9	158490	20605.8	15244.8	25632.1	36.495	189.289
10	125890	23252.6	15647	28027	33.9372	195.544
11	100000	25912.7	15899.3	30401.6	31.5321	202.64
12	79433	28674.9	16007.6	32840.4	29.1722	207.035
13	63096	31443.7	15892.5	35231.8	26.8133	213.76
14	50119	34093.6	15611.7	37497.9	24.6034	222.87
15	39811	36825	15059.4	39785.2	22.2418	226.915
16	31623	39245.5	14238.3	41748.5	19.9408	230.06
17	25119	41429	13369.6	43532.9	17.8855	236.205
18	19953	43541.2	12578.5	45321.6	16.1134	241.21
19	15849	45272.4	11602	46735.4	14.3739	271.386
20	12589	46794.5	10597.8	47979.6	12.7608	280.721
21	10000	48200	9618.78	49150.4	11.2857	285.536
22	7943.3	49428.6	8776.68	50201.8	10.0687	287.751
23	6309.6	50533.6	8010.55	51164.6	9.00753	290.471
24	5011.9	51510.6	7314.24	52027.3	8.08169	293.306
25	3981.1	52357.5	6705.4	52785.1	7.29812	297.591
26	3162.3	53150.4	6178.5	53508.3	6.63062	300.081
27	2511.9	53870.8	5725.27	54174.2	6.06649	304.516
28	1995.3	54543.5	5343.3	54804.6	5.59507	307.451
29	1584.9	55169.2	5024	55397.5	5.20331	309.792
30	1258.9	55800.4	4750.53	56002.3	4.86611	312.192
31	1000	56356.4	4537.82	56538.8	4.60353	314.337
32	794.33	56950.1	4360.01	57116.7	4.37793	316.562
33	630.96	57504.4	4214.35	57658.6	4.19157	318.362
34	501.19	58068.8	4098.28	58213.2	4.03703	320.112
35	398.11	58613.4	4006.02	58750.1	3.90989	321.722
36	316.23	59132.1	3928.12	59262.4	3.80055	323.737
37	251.19	59703.5	3871.81	59828.9	3.71047	325.457
38	199.53	60248.5	3829.8	60370.1	3.63721	327.277
39	158.49	60770.8	3790.96	60888.9	3.56956	329.172
40	125.89	61287.9	3750.97	61402.5	3.50228	331.117
41	100	61798.1	3721.98	61910.1	3.44664	333.127
42	79.433	62330.1	3696.06	62439.6	3.39356	334.962
43	63.096	62912.7	3645.49	63018.2	3.31631	336.752
44	50.119	63458.7	3626.33	63562.2	3.27059	338.717
45	39.811	64233.3	3620.51	64335.3	3.22606	348.392
46	31.623	64758.1	3580.26	64857	3.16447	350.347
47	25.119	65330.4	3548.46	65426.7	3.109	352.167
48	19.953	65751.3	3512.15	65845.1	3.05759	354.292
49	15.849	66345.8	3470.28	66436.5	2.99418	356.372
50	12.589	66813.1	3425.71	66900.9	2.93516	358.627
51	10	67362.6	3356.44	67446.2	2.85248	361.072
52	7.9433	67824.3	3309.27	67905	2.79335	363.733
53	6.3096	68401	3263.7	68478.8	2.73175	366.478
54	5.0119	68853.6	3224.57	68929	2.68133	369.288
55	3.9811	69250.4	3199.48	69324.3	2.64528	371.983
56	3.1623	69707.6	3181.65	69780.1	2.61333	374.553
57	2.5119	70068.3	3189.22	70140.9	2.60607	377.288
58	1.9953	70325	3259.28	70400.5	2.65353	381.578
59	1.5849	70642.6	3300.04	70719.7	2.6746	386.178
60	1.2589	71006	3469.07	71090.6	2.79702	389.913
61	1	71239.6	3675.39	71334.3	2.95338	395.878
62	0.79433	71619.3	3941.6	71727.7	3.15012	399.108
63	0.63096	72010.5	4264.9	72136.7	3.38944	402.863
64	0.50119	72343.8	4745.55	72499.3	3.75306	409.183
65	0.39811	72685.7	5352.85	72882.5	4.21187	421.159
66	0.31623	73097.4	6115.5	73352.8	4.78236	426.114
67	0.25119	73447.1	6975.39	73777.6	5.4252	431.729
68	0.19953	73935.1	8088.95	74376.3	6.24367	437.999
69	0.15849	74434.9	9586.51	75049.7	7.33876	445.229
70	0.12589	75193	11487	76065.3	8.68575	453.894
71	0.1	76017.9	13629.6	77230.1	10.1648	465.644

File: Z_p30_1.txt
Index	Frequency (Hz)	Z' (Ω)	-Z'' (Ω)	Z (Ω)	-Phase (°)	Time (s)
1	1000000	3444.98	8077.77	8781.7	66.9029	26.2033
2	794330	5518.42	8579.9	10201.4	57.2517	28.7083
3	630960	7596.36	9483.99	12151.2	51.3064	30.8484
4	501190	9804.58	10463.3	14339.2	46.8616	33.1384
5	398110	12815	12252.4	17729.8	43.7142	41.8686
6	316230	15090.2	12781.7	19775.9	40.2653	43.8636
7	251190	17382.9	12800.6	21587.5	36.3676	51.7588
8	199530	19777.2	12969.8	23650.6	33.2566	54.8438
9	158490	22142.1	12951.4	25651.7	30.3242	57.4089
10	125890	24416	12709.6	27525.9	27.4989	62.669
11	100000	26535.8	12324.9	29258.4	24.9131	65.289
12	79433	28568.8	11833.8	30922.8	22.5003	67.569
13	63096	30439.8	11254.5	32453.8	20.2909	70.3791
14	50119	32279.8	10536.2	33955.8	18.0768	74.3942
15	39811	33813.5	9897.6	35232.3	16.3154	77.5492
16	31623	35173.8	9086.56	36328.5	14.4847	79.6893
17	25119	36343.1	8468.04	37316.6	13.1161	81.5493
18	19953	37505	7832.77	38314.2	11.7964	83.7693
19	15849	38535.9	7230	39208.3	10.6261	85.5894
20	12589	39520	6652.06	40075.9	9.55455	87.5344
21	10000	40349.9	6111.74	40810.2	8.61304	92.7245
22	7943.3	41139.6	5673.25	41528.9	7.8517	94.2945
23	6309.6	41844.5	5286.29	42177.1	7.20014	96.0646
24	5011.9	42484	4945.83	42771	6.64026	98.1646
25	3981.1	43089.7	4657.63	43340.7	6.16924	100.635
26	3162.3	43813.4	4432.76	44037.1	5.77717	111.38
27	2511.9	44367.8	4227.41	44568.7	5.44277	113.485
28	1995.3	44903.2	4062.86	45086.6	5.17006	115.87
29	1584.9	45421.5	3926.3	45590.9	4.94045	118.375
30	1258.9	45904.5	3820.48	46063.2	4.75758	120.675
31	1000	46427	3743.4	46577.7	4.60977	122.93
32	794.33	46919.4	3683.55	47063.7	4.48897	124.84
33	630.96	47420.3	3642.2	47559.9	4.39209	126.705
34	501.19	47934.1	3616.25	48070.3	4.31434	128.515
35	398.11	48428.5	3597.36	48562	4.24824	131.035
36	316.23	48940.7	3592.57	49072.4	4.19836	133.025
37	251.19	49462	3592.15	49592.3	4.15378	135
38	199.53	49977.8	3604.02	50107.6	4.1246	137.36
39	158.49	50499	3609.18	50627.8	4.088	139.635
40	125.89	50985.3	3616.84	51113.4	4.05771	141.505
41	100	51533.9	3631.4	51661.6	4.03075	143.375
42	79.433	52069.8	3640.76	52197	3.99965	145.11
43	63.096	52599.6	3650.15	52726.1	3.96968	147.031
44	50.119	53134.4	3650.74	53259.7	3.93048	149.166
45	39.811	53714.1	3644.11	53837.6	3.88115	159.096
46	31.623	54236.7	3617.54	54357.2	3.81592	161.121
47	25.119	54794.5	3590.77	54912.1	3.74932	163.351
48	19.953	55335.1	3578.74	55450.7	3.70039	166.286
49	15.849	55892.5	3531.49	56004	3.61535	169.076
50	12.589	56403.2	3475.95	56510.2	3.52649	172.076
51	10	56937.6	3404.07	57039.3	3.42141	175.316
52	7.9433	57439.3	3330.37	57535.8	3.31833	178.496
53	6.3096	57935.9	3257.29	58027.4	3.21791	181.886
54	5.0119	58374	3175.7	58460.3	3.11398	185.771
55	3.9811	58835.3	3088.81	58916.4	3.00522	188.936
56	3.1623	59229.3	3018.27	59306.2	2.91721	192.051
57	2.5119	59602.5	2973.2	59676.6	2.85576	196.176
58	1.9953	60004.9	2948.89	60077.3	2.81349	199.721
59	1.5849	60332.3	2930.08	60403.4	2.78042	203.182
60	1.2589	60683.1	2977.3	60756.1	2.80885	206.757
61	1	61014.7	3042.59	61090.5	2.85478	212.607
62	0.79433	61352.5	3181.99	61435	2.96893	216.707
63	0.63096	61657.5	3369.57	61749.5	3.12809	222.097
64	0.50119	61914.4	3608.17	62019.5	3.33523	226.317
65	0.39811	62206.5	3954.55	62332	3.63748	230.922
66	0.31623	62506.5	4457.43	62665.2	4.07894	236.227
67	0.25119	62793.6	5035.83	62995.2	4.58511	241.862
68	0.19953	63165.3	5893.93	63439.7	5.33081	249.067
69	0.15849	63513.1	6846.36	63881	6.15241	256.828
70	0.12589	64005.1	8041.46	64508.3	7.16099	265.813
71	0.1	64263.5	9467.38	64957.1	8.38061	276.343