Folder: Streamlit_cement_impedance/data/20210121 (part 6)

File: Z_p52_1.txt
Index	Frequency (Hz)	Z' (Ω)	-Z'' (Ω)	Z (Ω)	-Phase (°)	Time (s)
1	1000000	3042.43	2705.07	4071.09	41.6408	21.8962
2	794330	3540.65	2557.67	4367.82	35.8433	24.2712
3	630960	4073.35	2483.9	4770.95	31.3746	26.3413
4	501190	4580.24	2391.95	5167.21	27.575	28.8263
5	398110	5134.56	2234.33	5599.64	23.5165	35.5714
6	316230	5507.61	2056.79	5879.13	20.4779	37.3565
7	251190	5783.89	1822.6	6064.26	17.4905	43.1166
8	199530	6100.74	1658.7	6322.21	15.2102	44.8116
9	158490	6360.63	1485.28	6531.74	13.1437	46.6517
10	125890	6568.47	1313.7	6698.56	11.31	48.5167
11	100000	6736.34	1150.65	6833.91	9.69331	50.8417
12	79433	6875.18	1002.26	6947.85	8.29408	52.7068
13	63096	6985.57	865.068	7038.93	7.05936	54.6318
14	50119	7075.81	753.294	7115.8	6.07684	56.8868
15	39811	7147.13	648.743	7176.51	5.18651	58.8169
16	31623	7207.85	557.593	7229.39	4.42354	60.8369
17	25119	7252.92	486.73	7269.23	3.83926	63.662
18	19953	7296.91	427.663	7309.43	3.3542	65.777
19	15849	7338.59	377.22	7348.27	2.94255	67.702
20	12589	7371.03	334.638	7378.62	2.59939	69.6121
21	10000	7399.93	302.157	7406.1	2.33823	71.4021
22	7943.3	7429.31	271.717	7434.28	2.09459	73.2871
23	6309.6	7455.37	248.545	7459.51	1.90941	75.1472
24	5011.9	7482.15	230.649	7485.7	1.76568	76.9922
25	3981.1	7504.38	213.371	7507.41	1.62864	78.9122
26	3162.3	7528.33	200.263	7530.99	1.52378	80.7923
27	2511.9	7548.43	189.909	7550.82	1.44119	82.5823
28	1995.3	7574.23	180.372	7576.37	1.36418	84.4523
29	1584.9	7594.54	172.99	7596.51	1.30487	85.8074
30	1258.9	7618.93	165.989	7620.74	1.24807	87.5824
31	1000	7638.34	159.767	7640.01	1.19825	89.2824
32	794.33	7657.81	154.716	7659.37	1.15743	91.0125
33	630.96	7678.5	149.156	7679.94	1.11284	93.8975
34	501.19	7700.37	144.778	7701.73	1.07711	98.0226
35	398.11	7716.79	141.061	7718.08	1.04724	99.9626
36	316.23	7736.3	138.685	7737.54	1.02701	101.783
37	251.19	7755.74	136.208	7756.93	1.00614	103.683
38	199.53	7773.61	135.066	7774.78	0.995413	105.333
39	158.49	7793.15	134.941	7794.32	0.991994	107.093
40	125.89	7807.49	137.352	7808.7	1.00786	109.018
41	100	7828.22	140.941	7829.49	1.03145	110.858
42	79.433	7841.68	142.753	7842.97	1.04292	112.623
43	63.096	7861.5	150.234	7862.94	1.09479	115.148
44	50.119	7860.73	145.101	7862.07	1.0575	117.023
45	39.811	7890.93	165.49	7892.66	1.20144	126.743
46	31.623	7909.46	181.903	7911.55	1.31747	128.823
47	25.119	7923.54	192.512	7925.88	1.39179	130.928
48	19.953	7951.56	216.799	7954.51	1.56178	133.148
49	15.849	7970.5	238.975	7974.08	1.71735	135.568
50	12.589	8002.04	268.642	8006.54	1.92279	137.953
51	10	8024.89	302.346	8030.59	2.15766	140.798
52	7.9433	8050.02	340.288	8057.21	2.42055	143.813
53	6.3096	8080.55	387.821	8089.85	2.74777	146.749
54	5.0119	8109.95	449.219	8122.39	3.17044	149.684
55	3.9811	8149.68	519.409	8166.21	3.64674	152.844
56	3.1623	8191.11	607.252	8213.59	4.23989	155.904
57	2.5119	8235.33	705.627	8265.5	4.89731	159.174
58	1.9953	8309.35	832.612	8350.96	5.72204	162.329
59	1.5849	8355.66	904.845	8404.51	6.18054	165.429
60	1.2589	8425.45	1143.08	8502.63	7.72611	168.779
61	1	8507.2	1361.71	8615.49	9.09391	175.079
62	0.79433	8598.02	1611.16	8747.67	10.6134	181.049
63	0.63096	8697.42	1926.21	8908.16	12.4877	187.509
64	0.50119	8803.1	2275.53	9092.44	14.4932	191.874
65	0.39811	8915.49	2751.49	9330.42	17.1512	196.789
66	0.31623	9096.38	3314.68	9681.49	20.0215	204.335
67	0.25119	9291.27	3982.53	10108.8	23.2015	211.465
68	0.19953	9495.98	4897.93	10684.7	27.2842	218.42
69	0.15849	9772.44	5928.58	11430.2	31.2436	225.98
70	0.12589	10087.1	7165.22	12372.9	35.3876	235.47
71	0.1	10516.6	8543.24	13549.4	39.0888	246.07

File: Z_p53_1.txt
Index	Frequency (Hz)	Z' (Ω)	-Z'' (Ω)	Z (Ω)	-Phase (°)	Time (s)
1	1000000	3308.65	3534.62	4841.56	46.8912	19.7912
2	794330	4007.92	3408.46	5261.27	40.3789	22.2262
3	630960	4737.03	3402.91	5832.6	35.6921	24.3862
4	501190	5471.68	3394.25	6438.96	31.8126	26.0163
5	398110	6301.28	3314.31	7119.75	27.7432	33.0414
6	316230	6935.26	3200.73	7638.23	24.774	34.5514
7	251190	7353.48	2896.16	7903.25	21.497	40.7215
8	199530	7868.79	2716.33	8324.44	19.0448	42.5866
9	158490	8322.21	2507.65	8691.81	16.7686	44.8616
10	125890	8709.24	2283.24	9003.55	14.6902	49.2917
11	100000	9049.64	2060.34	9281.22	12.826	51.7517
12	79433	9326.89	1843.78	9507.39	11.1823	53.8018
13	63096	9564.97	1639.42	9704.45	9.72592	56.7168
14	50119	9758.64	1444.28	9864.94	8.4187	59.0669
15	39811	9930.89	1273.9	10012.3	7.30976	60.8469
16	31623	10063.9	1112.68	10125.2	6.3091	64.127
17	25119	10168.2	990.336	10216.4	5.56277	66.742
18	19953	10282	875.53	10319.2	4.8671	68.9171
19	15849	10367.4	776.829	10396.4	4.28518	71.0121
20	12589	10449.6	695.238	10472.8	3.8064	72.9971
21	10000	10517.8	620.954	10536.1	3.37873	81.4323
22	7943.3	10578.2	562.019	10593.1	3.04127	84.3424
23	6309.6	10633.1	510.517	10645.3	2.74878	87.3024
24	5011.9	10684.2	465.215	10694.3	2.49322	89.2124
25	3981.1	10741.4	434.991	10750.2	2.31902	91.3275
26	3162.3	10778.4	403.992	10786	2.14654	96.1626
27	2511.9	10827.4	379.236	10834	2.006	98.7126
28	1995.3	10870.2	357.174	10876.1	1.88194	100.723
29	1584.9	10911.4	342.222	10916.7	1.79642	102.463
30	1258.9	10951.4	327.808	10956.3	1.71452	105.143
31	1000	10990.5	315.308	10995	1.64331	108.413
32	794.33	11027.4	306.329	11031.7	1.5912	110.453
33	630.96	11073	300.994	11077.1	1.55707	112.258
34	501.19	11104.7	293.024	11108.6	1.51154	113.973
35	398.11	11153	292.957	11156.8	1.50465	116.833
36	316.23	11180.6	291.437	11184.4	1.49315	118.538
37	251.19	11224.2	289.634	11227.9	1.47816	120.443
38	199.53	11265.8	296.149	11269.6	1.50582	122.123
39	158.49	11298	302.51	11302.1	1.53376	123.843
40	125.89	11334.1	314.9	11338.4	1.59147	125.473
41	100	11369.6	326.083	11374.2	1.64281	127.393
42	79.433	11418.2	339.013	11423.2	1.70065	129.313
43	63.096	11458	363.793	11463.7	1.81854	131.353
44	50.119	11586.9	334.917	11591.7	1.65567	133.298
45	39.811	11547.7	418.288	11555.3	2.07449	142.968
46	31.623	11597.2	450.13	11605.9	2.22275	145.213
47	25.119	11640	487.937	11650.3	2.40036	147.429
48	19.953	11699.8	536.353	11712.1	2.62477	149.974
49	15.849	11749.7	594.289	11764.7	2.89551	152.459
50	12.589	11824.4	664.529	11843	3.21663	154.939
51	10	11875.1	751.888	11898.9	3.62291	157.749
52	7.9433	11950.6	841.59	11980.2	4.02825	160.604
53	6.3096	12038	956.503	12075.9	4.54302	163.534
54	5.0119	12116.9	1093.79	12166.1	5.15811	166.614
55	3.9811	12207	1265.88	12272.4	5.9205	169.529
56	3.1623	12308.4	1467.11	12395.5	6.79735	172.249
57	2.5119	12382.8	1718.02	12501.4	7.89896	175.244
58	1.9953	12746.4	2000.77	12902.4	8.92081	178.444
59	1.5849	12545.1	2407.86	12774.1	10.865	181.414
60	1.2589	12847	2732.87	13134.5	12.0092	184.924
61	1	13077.8	3287.98	13484.8	14.1127	190.539
62	0.79433	13342.1	3918.75	13905.7	16.3682	194.064
63	0.63096	13614.5	4628.78	14379.9	18.7775	198.129
64	0.50119	13932.3	5516.15	14984.5	21.5999	202.345
65	0.39811	14288.6	6659.33	15764.2	24.9883	206.84
66	0.31623	14756.5	7974.93	16773.6	28.3884	212.085
67	0.25119	15278.5	9468.81	17974.8	31.7884	218.995
68	0.19953	16056	11414.2	19699.7	35.409	225.865
69	0.15849	16869.6	13714.7	21741.1	39.1106	233.705
70	0.12589	17898.3	16300.8	24208.8	42.3256	242.71
71	0.1	18801.1	19432	27038.5	45.9453	264.321

File: Z_p54_1.txt
Index	Frequency (Hz)	Z' (Ω)	-Z'' (Ω)	Z (Ω)	-Phase (°)	Time (s)
1	1000000	2927.9	3024.29	4209.38	45.9278	25.7173
2	794330	3506.67	2922.36	4564.75	39.8069	27.8023
3	630960	4121.81	2952.46	5070.14	35.6141	31.5074
4	501190	4764.04	2941.35	5598.89	31.6914	33.2824
5	398110	5422.23	2856.27	6128.53	27.7789	40.2025
6	316230	5962.84	2721.08	6554.37	24.5291	42.0576
7	251190	6354.21	2492.77	6825.68	21.4202	48.4227
8	199530	6794.44	2333.23	7183.9	18.9526	50.4227
9	158490	7179.99	2144.56	7493.43	16.6301	51.8577
10	125890	7511.14	1947.2	7759.43	14.5335	53.4628
11	100000	7855.22	1777.05	8053.72	12.7472	55.9928
12	79433	8100.12	1583.83	8253.51	11.0635	58.6279
13	63096	8295.14	1401.69	8412.73	9.5911	60.8179
14	50119	8465.54	1246.21	8556.78	8.37432	62.6879
15	39811	8599.53	1089.51	8668.27	7.22057	64.458
16	31623	8715.25	956.416	8767.58	6.26261	66.143
17	25119	8815.28	850.011	8856.17	5.5077	68.3631
18	19953	8900.64	749.982	8932.18	4.81645	70.2231
19	15849	8983.41	671.146	9008.44	4.2726	71.7181
20	12589	9043.74	598.929	9063.55	3.78893	73.2031
21	10000	9103.52	538.897	9119.46	3.38776	74.7632
22	7943.3	9166.34	491.939	9179.53	3.072	76.3232
23	6309.6	9217	450.39	9228	2.79754	78.2132
24	5011.9	9263.3	415.072	9272.59	2.5656	79.8883
25	3981.1	9306.31	383.984	9314.22	2.36272	81.6083
26	3162.3	9348.63	359.352	9355.54	2.20131	83.2433
27	2511.9	9389.89	340.756	9396.08	2.07833	84.7884
28	1995.3	9444.64	324.251	9450.21	1.96629	87.1234
29	1584.9	9470.33	310.308	9475.41	1.8767	91.0035
30	1258.9	9505.37	299.525	9510.09	1.80486	92.6285
31	1000	9540.81	287.994	9545.16	1.72897	94.1685
32	794.33	9578.02	280.368	9582.12	1.67668	96.4186
33	630.96	9612.49	275.398	9616.44	1.64107	111.674
34	501.19	9651.44	270.971	9655.24	1.6082	116.709
35	398.11	9689.29	266.103	9692.94	1.57315	118.669
36	316.23	9721.06	265.51	9724.68	1.56453	120.679
37	251.19	9757.6	260.676	9761.08	1.5303	122.744
38	199.53	9795.33	266.68	9798.96	1.55951	125.839
39	158.49	9833.38	268.53	9837.04	1.56425	127.599
40	125.89	9865.13	274.22	9868.94	1.59224	129.579
41	100	9903.14	278.076	9907.04	1.60842	131.524
42	79.433	9939.49	287.169	9943.64	1.65491	133.384
43	63.096	9984.43	302.291	9989	1.73417	135.849
44	50.119	10019.3	254.328	10022.6	1.45407	137.834
45	39.811	10043.5	326.233	10048.8	1.86043	147.19
46	31.623	10094.3	344.799	10100.2	1.95634	149.31
47	25.119	10136.2	361.51	10142.6	2.04261	151.515
48	19.953	10181.2	399.516	10189.1	2.24716	154.225
49	15.849	10321.8	450.057	10331.6	2.49667	157.09
50	12.589	10375.5	483.269	10386.8	2.66679	165.1
51	10	10419.6	542.825	10433.7	2.98222	169.785
52	7.9433	10479.3	603.389	10496.7	3.29539	173.295
53	6.3096	10533	671.231	10554.4	3.64633	176.685
54	5.0119	10606.6	764.535	10634.1	4.12281	180.34
55	3.9811	10680.4	862.89	10715.2	4.61898	183.57
56	3.1623	10755.7	978.34	10800.1	5.19733	187.26
57	2.5119	10829.1	1115.75	10886.5	5.88256	191.415
58	1.9953	10962.8	1378.61	11049.1	7.16755	196.185
59	1.5849	11023.1	1572.51	11134.7	8.11877	200.175
60	1.2589	11134.2	1798.93	11278.6	9.17788	204.026
61	1	11306.4	2084.12	11496.9	10.4441	209.881
62	0.79433	11478	2447.54	11736	12.0374	213.646
63	0.63096	11655.5	2896.69	12010.1	13.9567	217.786
64	0.50119	11870.5	3404.58	12349.1	16.0034	222.481
65	0.39811	12064.1	4066.85	12731.1	18.6291	227.221
66	0.31623	12332.2	4865.8	13257.4	21.5322	232.271
67	0.25119	12698	5864.25	13986.7	24.7887	238.376
68	0.19953	13079.5	6876.27	14776.9	27.7322	245.411
69	0.15849	13565.8	8318.89	15913.4	31.5176	254.046
70	0.12589	14195.3	9964.66	17343.6	35.0676	263.417
71	0.1	14895.3	11825.3	19018.6	38.4459	274.697

File: Z_p55_1.txt
Index	Frequency (Hz)	Z' (Ω)	-Z'' (Ω)	Z (Ω)	-Phase (°)	Time (s)
1	1000000	2949.22	2971.57	4186.66	45.2163	20.5472
2	794330	3511.36	2881.39	4542.25	39.372	23.0922
3	630960	4102.86	2888.03	5017.39	35.1419	25.0023
4	501190	4706.84	2866.23	5510.86	31.3394	27.3423
5	398110	5362.23	2792.13	6045.61	27.5061	34.6824
6	316230	5876.78	2675.28	6457.07	24.4764	37.1275
7	251190	6251.3	2447.87	6713.48	21.3843	46.1626
8	199530	6689.93	2302.56	7075.09	18.9926	48.5527
9	158490	7073.61	2130.78	7387.57	16.7638	51.0877
10	125890	7410.2	1945.75	7661.4	14.7124	52.9978
11	100000	7685.42	1756.37	7883.56	12.8729	55.5178
12	79433	7934.36	1574.92	8089.15	11.2269	57.8379
13	63096	8132.4	1398.5	8251.77	9.75751	62.0679
14	50119	8303.49	1235.04	8394.84	8.46003	64.103
15	39811	8447.92	1087.51	8517.63	7.3354	65.978
16	31623	8562.7	954.201	8615.7	6.35863	68.113
17	25119	8663.54	843.403	8704.49	5.56028	70.0981
18	19953	8749.76	748.623	8781.73	4.89027	72.8331
19	15849	8827.56	666.379	8852.68	4.31698	79.4233
20	12589	8892.15	593.956	8911.96	3.82143	81.5433
21	10000	8950.12	533.039	8965.98	3.40832	83.3683
22	7943.3	9009.19	481.138	9022.03	3.05699	85.2434
23	6309.6	9059.46	439.948	9070.14	2.78023	89.3184
24	5011.9	9101.71	403.05	9110.63	2.53556	92.4135
25	3981.1	9144.04	371.451	9151.58	2.3262	93.9385
26	3162.3	9183.79	347.088	9190.34	2.16438	95.4686
27	2511.9	9225.14	325.961	9230.9	2.02364	97.0436
28	1995.3	9271.45	309.675	9276.62	1.91302	99.7886
29	1584.9	9301.03	294.481	9305.69	1.81344	104.099
30	1258.9	9330.89	284.17	9335.22	1.74439	105.934
31	1000	9365.48	274.19	9369.49	1.67695	107.769
32	794.33	9402.43	267.659	9406.24	1.6306	110.634
33	630.96	9434.41	262.749	9438.07	1.59528	112.464
34	501.19	9472.49	255.832	9475.94	1.54706	114.354
35	398.11	9502.77	256.901	9506.24	1.54858	116.409
36	316.23	9536.26	256.357	9539.71	1.53988	118.439
37	251.19	9572.03	258.591	9575.52	1.54748	121.209
38	199.53	9599.07	263.033	9602.67	1.56962	123.029
39	158.49	9636.96	271.482	9640.79	1.61365	124.894
40	125.89	9672.94	281.532	9677.04	1.66713	127.024
41	100	9703.4	295.351	9707.89	1.74342	129.084
42	79.433	9740.83	310.952	9745.79	1.8284	131.054
43	63.096	9779.35	328.627	9784.87	1.92465	133.204
44	50.119	9879.79	313.323	9884.76	1.81644	135.244
45	39.811	9865.01	376.086	9872.18	2.18324	146.92
46	31.623	9907.9	414.25	9916.55	2.39415	148.925
47	25.119	9956.25	448.321	9966.34	2.57824	152.22
48	19.953	10010.7	498.153	10023.1	2.8488	154.7
49	15.849	10055.9	549.431	10070.8	3.12742	157.065
50	12.589	10112.4	605.275	10130.5	3.42533	159.4
51	10	10180.8	678.719	10203.4	3.81407	162.14
52	7.9433	10251	772.982	10280.1	4.31224	164.825
53	6.3096	10331.5	864.105	10367.6	4.78096	167.495
54	5.0119	10411.5	979.697	10457.5	5.37556	170.325
55	3.9811	10519.4	1117.28	10578.5	6.06273	173.295
56	3.1623	10611.7	1283.43	10689.1	6.8961	176.185
57	2.5119	10714.2	1490.76	10817.4	7.92123	179.135
58	1.9953	10853.5	1725.23	10989.8	9.03194	182.18
59	1.5849	11059.1	1958.01	11231.1	10.0401	185.405
60	1.2589	11129.9	2327.19	11370.6	11.81	188.695
61	1	11369.5	2720.4	11690.4	13.4563	194.42
62	0.79433	11591.3	3192.2	12022.9	15.3973	197.9
63	0.63096	11858.9	3738.19	12434.1	17.496	202.076
64	0.50119	12120.6	4440.37	12908.3	20.1203	206.421
65	0.39811	12428.8	5225.48	13482.6	22.8034	210.971
66	0.31623	12822.5	6211.51	14247.8	25.8466	216.091
67	0.25119	13229.5	7456.01	15185.9	29.4052	221.976
68	0.19953	13785.3	8781.4	16344.7	32.4975	228.511
69	0.15849	14382.3	10484.4	17798.1	36.0912	235.906
70	0.12589	15103.2	12502.8	19606.8	39.6188	245.411
71	0.1	16078.1	15093.8	22052.9	43.1913	255.942