Folder: Streamlit_cement_impedance/data/20210121 (part 5)

File: Z_p45_1.txt
Index	Frequency (Hz)	Z' (Ω)	-Z'' (Ω)	Z (Ω)	-Phase (°)	Time (s)
1	1000000	2298.55	1953.09	3016.27	40.3548	186.966
2	794330	2634.7	1873.43	3232.86	35.4151	190.596
3	630960	3005.88	1840.45	3524.57	31.4784	194.106
4	501190	3376.5	1780.18	3817.04	27.7994	258.943
5	398110	3752.45	1668.04	4106.48	23.9662	288.033
6	316230	4053.73	1564.52	4345.17	21.1039	293.948
7	251190	4246.79	1399.3	4471.38	18.2369	302.158
8	199530	4494.28	1287.05	4674.94	15.9804	303.918
9	158490	4698.27	1162.69	4839.99	13.8998	305.853
10	125890	4873.04	1037.97	4982.36	12.0245	307.808
11	100000	5009.95	916.434	5093.08	10.3661	309.954
12	79433	5123.42	803.8	5186.09	8.91631	311.929
13	63096	5215.69	702.504	5262.79	7.67104	314.214
14	50119	5292.04	610.959	5327.19	6.58557	316.284
15	39811	5353.74	531.839	5380.1	5.67313	318.384
16	31623	5402.76	463.629	5422.61	4.90473	320.494
17	25119	5448.84	409.933	5464.23	4.30243	322.574
18	19953	5487.44	361.948	5499.37	3.77373	325.639
19	15849	5522.3	322.043	5531.68	3.33753	327.799
20	12589	5551.44	289.559	5558.99	2.9858	330.289
21	10000	5579.79	263.059	5585.99	2.69921	332.569
22	7943.3	5604.72	240.737	5609.89	2.45949	334.694
23	6309.6	5630.24	222.686	5634.64	2.26497	336.939
24	5011.9	5657.39	208.387	5661.22	2.10951	338.994
25	3981.1	5681.3	196.947	5684.72	1.98541	341.019
26	3162.3	5701.89	187.293	5704.96	1.88135	343.109
27	2511.9	5723.16	179.416	5725.97	1.79559	345.819
28	1995.3	5746.51	173.542	5749.13	1.72978	347.789
29	1584.9	5766.61	168.565	5769.08	1.67435	349.954
30	1258.9	5787.38	164.526	5789.72	1.62839	351.854
31	1000	5809.19	161.016	5811.42	1.58769	353.894
32	794.33	5833.43	158.783	5835.59	1.55918	356.044
33	630.96	5853.47	156.323	5855.56	1.52978	357.984
34	501.19	5873.32	155.012	5875.37	1.51183	360.014
35	398.11	5895.15	154.116	5897.16	1.49754	362.214
36	316.23	5916.82	153.859	5918.82	1.48957	364.35
37	251.19	5937.7	154.44	5939.71	1.48993	366.48
38	199.53	5961.98	155.315	5964	1.49227	368.39
39	158.49	5981.46	157.805	5983.54	1.51124	370.405
40	125.89	6003.68	161.09	6005.84	1.53698	372.54
41	100	6023.64	165.712	6025.92	1.57582	374.865
42	79.433	6048.73	170.511	6051.13	1.61472	376.815
43	63.096	6066.66	178.427	6069.29	1.68465	379.43
44	50.119	6102.35	180.727	6105.03	1.69638	381.665
45	39.811	6111.67	196.71	6114.83	1.84348	391.465
46	31.623	6137.14	206.758	6140.62	1.92954	393.79
47	25.119	6164.77	222.722	6168.8	2.06909	395.975
48	19.953	6192.43	241.778	6197.15	2.23593	398.705
49	15.849	6219.21	260.261	6224.65	2.39631	401.65
50	12.589	6249.76	286.6	6256.33	2.62561	404.42
51	10	6282.9	313.837	6290.73	2.85961	407.41
52	7.9433	6320.31	351.951	6330.1	3.18726	410.6
53	6.3096	6360.27	386.696	6372.02	3.47922	413.96
54	5.0119	6404.28	426.247	6418.44	3.8078	417.015
55	3.9811	6446.04	475.989	6463.59	4.22318	420.051
56	3.1623	6498.8	537.375	6520.98	4.72694	429.361
57	2.5119	6554.61	616.425	6583.53	5.37255	472.662
58	1.9953	6649.16	678.975	6683.73	5.83052	506.502
59	1.5849	6684.07	780.255	6729.46	6.6582	511.042
60	1.2589	6752.43	903.101	6812.55	7.61779	517.597
61	1	6842.84	1013.82	6917.53	8.42748	524.147
62	0.79433	6937.64	1166.23	7034.98	9.54227	538.128
63	0.63096	7033.49	1347.89	7161.48	10.8485	562.573
64	0.50119	7148.14	1561.81	7316.77	12.325	573.343
65	0.39811	7262.23	1822.22	7487.36	14.0857	595.344
66	0.31623	7385.98	2142.15	7690.35	16.1737	617.674
67	0.25119	7523.9	2521.33	7935.12	18.5265	666.035
68	0.19953	7671.07	2990.07	8233.22	21.2951	705.706
69	0.15849	7834.6	3570.23	8609.73	24.4987	749.902
70	0.12589	8004.2	4286.29	9079.62	28.1693	793.377
71	0.1	8203.41	5155.72	9689.04	32.1488	813.438

File: Z_p46_1.txt
Index	Frequency (Hz)	Z' (Ω)	-Z'' (Ω)	Z (Ω)	-Phase (°)	Time (s)
1	1000000	3417.78	3392.88	4815.9	44.7905	21.8422
2	794330	4068.68	3204.98	5179.38	38.2282	23.4422
3	630960	4778.54	3137.69	5716.6	33.2898	25.4172
4	501190	5439.86	3060.89	6241.89	29.3655	27.5873
5	398110	6195.71	2892.51	6837.65	25.0259	35.1074
6	316230	6718.85	2697.89	7240.28	21.8775	36.9875
7	251190	7069.25	2399.85	7465.5	18.7512	42.9376
8	199530	7484.25	2195.82	7799.72	16.3513	44.7276
9	158490	7825.52	1975.63	8071.05	14.1688	46.3676
10	125890	8116.64	1758.6	8304.97	12.2251	48.1877
11	100000	8347.75	1548.69	8490.2	10.5102	49.8927
12	79433	8538.94	1358.93	8646.4	9.04248	51.6477
13	63096	8695.48	1184.11	8775.73	7.75455	53.6828
14	50119	8812.27	1029.88	8872.25	6.66586	55.4628
15	39811	8925.69	893.615	8970.31	5.71724	57.2028
16	31623	9002.77	774.379	9036.02	4.91623	59.1829
17	25119	9077.13	685.397	9102.97	4.3181	61.0329
18	19953	9141.78	605.968	9161.84	3.79234	62.7479
19	15849	9199.53	538.641	9215.29	3.3509	64.913
20	12589	9248.55	481.622	9261.09	2.981	68.508
21	10000	9292.51	436.35	9302.75	2.68847	70.2281
22	7943.3	9337.76	399.935	9346.32	2.45248	71.9881
23	6309.6	9379.63	367.181	9386.81	2.2418	73.7181
24	5011.9	9418.22	342.342	9424.44	2.08172	75.4832
25	3981.1	9459.74	321.663	9465.21	1.9475	77.4582
26	3162.3	9493.08	305.699	9498	1.84442	79.2232
27	2511.9	9531.72	290.37	9536.15	1.74489	81.0433
28	1995.3	9575.84	277.549	9579.86	1.66021	83.9033
29	1584.9	9616	266.856	9619.71	1.58962	85.4334
30	1258.9	9632.94	258.286	9636.41	1.53589	90.0484
31	1000	9666.35	250.549	9669.6	1.48476	91.7835
32	794.33	9702.69	243.881	9705.75	1.43985	93.5635
33	630.96	9731.1	237.122	9733.99	1.39588	95.2235
34	501.19	9766.25	229.995	9768.96	1.34907	97.1336
35	398.11	9798.15	224.513	9800.72	1.31264	98.7936
36	316.23	9836.58	218.947	9839.02	1.2751	100.424
37	251.19	9861.21	214.276	9863.53	1.24479	102.184
38	199.53	9897.99	211.165	9900.24	1.22217	103.869
39	158.49	9921.87	205.13	9923.99	1.1844	105.764
40	125.89	9952.98	202.776	9955.05	1.16715	107.669
41	100	9987.62	202.137	9989.67	1.15944	109.454
42	79.433	10013.1	199.892	10015	1.14365	111.234
43	63.096	10033.2	203.26	10035.2	1.16058	113.074
44	50.119	10076.9	143.42	10077.9	0.815409	115.274
45	39.811	10089.1	197.608	10091	1.12207	124.949
46	31.623	10116	202.003	10118	1.14397	127.054
47	25.119	10145.6	197.201	10147.5	1.11352	128.979
48	19.953	10164.7	202.127	10166.7	1.13919	131.249
49	15.849	10194.1	218.34	10196.4	1.22699	133.384
50	12.589	10225	226.369	10227.5	1.26825	135.969
51	10	10247.8	243.01	10250.7	1.35842	138.779
52	7.9433	10270.4	256.936	10273.7	1.43307	141.509
53	6.3096	10300.5	282.907	10304.4	1.57325	144.314
54	5.0119	10319.3	303.323	10323.8	1.68365	147.36
55	3.9811	10352.2	339.808	10357.8	1.88004	150.135
56	3.1623	10382.7	375.715	10389.5	2.07243	153.125
57	2.5119	10415.4	431.595	10424.4	2.37287	156.25
58	1.9953	10377.1	482.046	10388.3	2.65963	159.245
59	1.5849	10507.2	549.304	10521.6	2.99263	162.245
60	1.2589	10503	614.284	10520.9	3.34723	165.46
61	1	10586.2	760.516	10613.5	4.1091	171.84
62	0.79433	10660.5	897.444	10698.2	4.81204	175.41
63	0.63096	10716.9	1055.22	10768.8	5.62337	179.325
64	0.50119	10754.4	1241.75	10825.8	6.58648	183.75
65	0.39811	10841.5	1502.55	10945.1	7.89051	188.385
66	0.31623	10934.3	1794.27	11080.6	9.31892	193.285
67	0.25119	11004.8	2184.45	11219.6	11.2272	198.845
68	0.19953	11109.4	2592.81	11407.9	13.1371	205.341
69	0.15849	11234.3	3127.29	11661.5	15.5556	212.986
70	0.12589	11362.5	3815.89	11986.1	18.5638	222.336
71	0.1	11548.4	4593.97	12428.6	21.6927	239.016

File: Z_p47_1.txt
Index	Frequency (Hz)	Z' (Ω)	-Z'' (Ω)	Z (Ω)	-Phase (°)	Time (s)
1	1000000	2596.41	2115.86	3349.36	39.1773	27.9693
2	794330	2952.78	2007.89	3570.78	34.2157	30.8444
3	630960	3348.5	1947.21	3873.51	30.1788	33.4594
4	501190	3738.96	1872.09	4181.45	26.5971	35.8345
5	398110	4141.66	1734.21	4490.08	22.7202	44.6946
6	316230	4454.21	1598.63	4732.4	19.7432	46.8597
7	251190	4636.24	1413.18	4846.83	16.9518	54.3898
8	199530	4881.29	1287.45	5048.22	14.7754	56.3148
9	158490	5083.12	1154.15	5212.5	12.7924	58.8149
10	125890	5245.54	1021.29	5344.04	11.0174	61.3349
11	100000	5379.4	896.582	5453.6	9.46248	63.405
12	79433	5486.47	781.52	5541.85	8.10695	66.34
13	63096	5570.04	680.286	5611.43	6.96322	69.0951
14	50119	5644.26	590.218	5675.03	5.9697	71.7501
15	39811	5700.64	511.712	5723.56	5.12935	74.5802
16	31623	5748.77	443.593	5765.86	4.41238	77.1902
17	25119	5785.52	389.365	5798.61	3.85019	80.7303
18	19953	5821.79	345.172	5832.01	3.39308	83.0203
19	15849	5854.83	306.869	5862.87	3.00029	84.8654
20	12589	5883.05	275.77	5889.51	2.68379	86.7754
21	10000	5908.72	250.487	5914.03	2.42748	88.9704
22	7943.3	5935.67	229.402	5940.1	2.21327	90.7705
23	6309.6	5961.69	212.37	5965.47	2.04015	92.3005
24	5011.9	5981.72	198.3	5985.01	1.89872	93.9955
25	3981.1	6004.48	186.881	6007.39	1.78267	95.5856
26	3162.3	6022.23	177.587	6024.84	1.68908	97.0906
27	2511.9	6045.12	169.682	6047.5	1.60783	98.7956
28	1995.3	6066.45	163.776	6068.66	1.54644	100.746
29	1584.9	6088.73	158.179	6090.78	1.48815	102.681
30	1258.9	6108.08	152.863	6109.99	1.43361	107.086
31	1000	6128.15	148.248	6129.94	1.38579	108.846
32	794.33	6150.52	144.216	6152.21	1.34321	110.376
33	630.96	6167.66	140.606	6169.26	1.30597	113.561
34	501.19	6190.68	137.013	6192.19	1.26787	116.651
35	398.11	6206.27	133.62	6207.71	1.23338	118.731
36	316.23	6225.25	130.552	6226.62	1.2014	123.561
37	251.19	6241.99	128.869	6243.32	1.18273	130.986
38	199.53	6264.35	125.868	6265.61	1.15108	133.156
39	158.49	6281.69	124.604	6282.93	1.13637	137.296
40	125.89	6301.7	122.973	6302.9	1.11795	139.491
41	100	6315.93	123.714	6317.14	1.12214	141.636
42	79.433	6331.62	122.983	6332.81	1.11275	144.376
43	63.096	6348.92	126.158	6350.18	1.13836	146.782
44	50.119	6353.15	118.176	6354.25	1.06565	148.902
45	39.811	6378.23	126.188	6379.48	1.1334	158.857
46	31.623	6393.34	127.739	6394.62	1.14461	162.047
47	25.119	6407.92	131.373	6409.26	1.1745	165.027
48	19.953	6428.32	141.1	6429.86	1.25742	167.537
49	15.849	6440.96	147.544	6442.65	1.31225	171.022
50	12.589	6459.72	158.537	6461.67	1.40589	173.477
51	10	6477.05	171.919	6479.33	1.52043	176.897
52	7.9433	6488.18	191.776	6491.01	1.69304	179.812
53	6.3096	6509.33	211.334	6512.76	1.85953	182.632
54	5.0119	6527.03	235.729	6531.29	2.06839	185.487
55	3.9811	6546.89	270.952	6552.5	2.36991	188.442
56	3.1623	6568.46	306.025	6575.58	2.66748	191.527
57	2.5119	6599.83	367.486	6610.06	3.187	195.307
58	1.9953	6626.47	429.687	6640.39	3.71009	198.382
59	1.5849	6648.58	524.349	6669.22	4.50937	201.503
60	1.2589	6690.82	579.599	6715.88	4.95095	205.063
61	1	6729.51	691.481	6764.94	5.86675	211.018
62	0.79433	6782.33	824.851	6832.3	6.93413	214.613
63	0.63096	6844.45	968.238	6912.59	8.05182	219.028
64	0.50119	6892.2	1142.32	6986.22	9.41073	223.648
65	0.39811	6982.58	1370.65	7115.84	11.1057	229.738
66	0.31623	7046.12	1661.74	7239.42	13.27	235.873
67	0.25119	7117.46	1979.85	7387.69	15.5448	242.793
68	0.19953	7261.99	2358.77	7635.46	17.9943	249.438
69	0.15849	7319.04	2867.96	7860.89	21.3977	258.354
70	0.12589	7450.78	3511.23	8236.67	25.2325	268.244
71	0.1	7562.97	4235.86	8668.39	29.2522	288.949

File: Z_p48_1.txt
Index	Frequency (Hz)	Z' (Ω)	-Z'' (Ω)	Z (Ω)	-Phase (°)	Time (s)
1	1000000	2180.58	1799.55	2827.24	39.5315	22.5222
2	794330	2484.68	1739.59	3033.12	34.9968	24.8023
3	630960	2822.6	1722.74	3306.8	31.3972	27.0473
4	501190	3161.46	1675.61	3578.06	27.9241	29.1123
5	398110	3507.6	1577.22	3845.89	24.2114	34.7424
6	316230	3792.18	1479.42	4070.54	21.3119	36.7025
7	251190	3981.99	1326.99	4197.28	18.4306	42.6876
8	199530	4216.35	1223.87	4390.38	16.1863	45.4226
9	158490	4414.98	1109.86	4552.34	14.1109	46.9977
10	125890	4579.94	992.644	4686.28	12.229	49.1877
11	100000	4712.86	878.356	4794.01	10.5573	54.8878
12	79433	4822.91	773.345	4884.52	9.10973	57.3629
13	63096	4913.79	675.554	4960.01	7.82802	59.3279
14	50119	4987.4	590.581	5022.25	6.7532	61.6879
15	39811	5050.55	514.67	5076.71	5.81857	63.788
16	31623	5099.1	448.217	5118.76	5.02346	65.708
17	25119	5141.07	395.11	5156.23	4.39475	68.003
18	19953	5181.09	349.749	5192.88	3.86189	70.0481
19	15849	5213.55	310.402	5222.78	3.40723	72.1581
20	12589	5242.62	279.014	5250.04	3.04643	74.3282
21	10000	5268.88	253.002	5274.95	2.74912	76.0932
22	7943.3	5294.85	231.517	5299.91	2.50365	80.1233
23	6309.6	5320.84	214.357	5325.16	2.30699	83.2383
24	5011.9	5341.74	200.102	5345.49	2.1453	85.5834
25	3981.1	5361.62	189.139	5364.95	2.02036	88.5134
26	3162.3	5384.55	180.066	5387.56	1.91533	90.7285
27	2511.9	5405.09	172.714	5407.85	1.8302	92.9785
28	1995.3	5424.92	166.749	5427.49	1.76058	97.9886
29	1584.9	5445.98	162.181	5448.4	1.70576	102.109
30	1258.9	5466.77	157.805	5469.05	1.65346	112.234
31	1000	5484.71	155.183	5486.91	1.62068	116.274
32	794.33	5506.26	153.027	5508.39	1.59192	122.584
33	630.96	5526.08	150.989	5528.14	1.56511	125.269
34	501.19	5546.86	149.863	5548.88	1.54762	126.979
35	398.11	5567.89	149.488	5569.9	1.53792	128.664
36	316.23	5591.44	149.629	5593.45	1.53289	130.409
37	251.19	5611.65	149.769	5613.65	1.52881	132.479
38	199.53	5629.67	152.044	5631.73	1.54704	134.174
39	158.49	5652.34	155.129	5654.46	1.57209	136.014
40	125.89	5673.09	158.681	5675.31	1.60219	138.004
41	100	5692.21	163.081	5694.54	1.64107	139.914
42	79.433	5713.71	169.828	5716.23	1.7025	141.929
43	63.096	5734.32	176.481	5737.04	1.7628	143.934
44	50.119	5746.57	190.256	5749.71	1.89625	146.81
45	39.811	5779.88	198.479	5783.29	1.96675	159.96
46	31.623	5801.66	209.959	5805.46	2.0726	166.62
47	25.119	5826.43	227.949	5830.88	2.24046	173.57
48	19.953	5857.63	252.31	5863.06	2.46642	179.925
49	15.849	5884.92	275.868	5891.38	2.6839	183.16
50	12.589	5914.27	301.347	5921.94	2.91684	185.635
51	10	5953.81	335.685	5963.26	3.22701	188.455
52	7.9433	5991.1	370.41	6002.54	3.5379	191.39
53	6.3096	6028.77	415.668	6043.08	3.94415	194.345
54	5.0119	6074.71	464.899	6092.48	4.37633	197.51
55	3.9811	6125.61	521.713	6147.78	4.86808	200.706
56	3.1623	6184.34	590.271	6212.44	5.45214	209.206
57	2.5119	6230.97	675.872	6267.52	6.19066	222.851
58	1.9953	6337.27	756.77	6382.3	6.80977	230.746
59	1.5849	6402.3	887.82	6463.56	7.89498	243.166
60	1.2589	6472.18	1003.13	6549.45	8.81021	252.041
61	1	6568.56	1135.14	6665.92	9.80465	258.887
62	0.79433	6672.4	1307.91	6799.38	11.0904	262.817
63	0.63096	6797.15	1500.48	6960.8	12.4485	266.857
64	0.50119	6904.01	1739.07	7119.67	14.1383	271.367
65	0.39811	7042.39	2045.02	7333.3	16.1926	276.132
66	0.31623	7188.22	2410.15	7581.51	18.5359	281.337
67	0.25119	7385.92	2803.07	7899.94	20.7825	287.272
68	0.19953	7553.95	3356.4	8266.05	23.9567	293.917
69	0.15849	7741.3	3978.26	8703.69	27.1986	301.777
70	0.12589	8026.47	4746.24	9324.75	30.5968	310.778
71	0.1	8297.82	5557.41	9986.93	33.8119	321.433

File: Z_p49_1.txt
Index	Frequency (Hz)	Z' (Ω)	-Z'' (Ω)	Z (Ω)	-Phase (°)	Time (s)
1	1000000	2306.28	1903.46	2990.33	39.5342	23.6342
2	794330	2628.17	1838.54	3207.41	34.9747	25.6643
3	630960	2983.12	1807.13	3487.8	31.2068	27.7743
4	501190	3340.11	1766.24	3778.35	27.8698	30.1393
5	398110	3703.58	1661.71	4059.28	24.1647	36.2795
6	316230	4003.11	1572.73	4300.98	21.4488	38.5595
7	251190	4200.56	1403.67	4428.89	18.4777	46.2796
8	199530	4448.66	1300.93	4634.98	16.3007	48.3747
9	158490	4660.57	1186.76	4809.29	14.2861	50.3347
10	125890	4835.61	1069.83	4952.55	12.4752	53.5298
11	100000	4980.63	955.829	5071.52	10.8635	57.2648
12	79433	5105.62	850.818	5176.02	9.46102	60.1499
13	63096	5207.22	754.047	5261.53	8.23961	62.5999
14	50119	5293.05	665.825	5334.77	7.16971	66.515
15	39811	5364.85	592.07	5397.42	6.29773	69.6801
16	31623	5423.01	525.209	5448.38	5.53175	71.9501
17	25119	5476.96	469.401	5497.03	4.89855	74.3002
18	19953	5525.78	425.633	5542.15	4.40461	77.1552
19	15849	5570.03	388.453	5583.56	3.98934	79.6203
20	12589	5610.16	356.637	5621.48	3.63739	81.8703
21	10000	5646.41	332.146	5656.17	3.3665	84.9104
22	7943.3	5683.12	312.171	5691.69	3.14407	87.3204
23	6309.6	5717.35	295.864	5725	2.96232	89.4854
24	5011.9	5752.18	284.908	5759.23	2.83557	91.5555
25	3981.1	5786.66	276.667	5793.27	2.7373	94.3355
26	3162.3	5819.71	270.473	5825.99	2.66093	97.4556
27	2511.9	5849.75	267.902	5855.88	2.62215	99.3056
28	1995.3	5884.61	266.806	5890.65	2.59599	102.926
29	1584.9	5917.18	268.306	5923.26	2.59622	105.186
30	1258.9	5952.05	271.11	5958.22	2.60797	107.066
31	1000	5986.91	275.645	5993.25	2.63611	109.201
32	794.33	6021.64	282.455	6028.26	2.68559	111.281
33	630.96	6058.48	289.939	6065.41	2.7399	113.991
34	501.19	6096.87	301.32	6104.31	2.82938	116.376
35	398.11	6136.58	314.015	6144.61	2.92933	118.261
36	316.23	6178.4	328.183	6187.11	3.04057	120.211
37	251.19	6222.88	345.982	6232.49	3.18228	122.261
38	199.53	6269.12	367.998	6279.91	3.35942	124.346
39	158.49	6315	391.327	6327.11	3.54596	126.761
40	125.89	6368.44	420.238	6382.29	3.77534	129.506
41	100	6422.1	452.645	6438.04	4.03168	134.521
42	79.433	6480.19	490.203	6498.7	4.32598	136.956
43	63.096	6544.4	532.894	6566.06	4.65518	140.696
44	50.119	6618.06	564.857	6642.12	4.87842	143.996
45	39.811	6685.33	627.441	6714.71	5.3617	154.937
46	31.623	6767.21	686.162	6801.9	5.78973	157.917
47	25.119	6856.98	750.05	6897.88	6.24247	159.882
48	19.953	6951.2	826.235	7000.13	6.7785	162.027
49	15.849	7063.82	904.337	7121.47	7.29554	164.427
50	12.589	7184.26	994.437	7252.76	7.88074	166.967
51	10	7309.66	1088.5	7390.26	8.46981	170.892
52	7.9433	7449.51	1195.41	7544.81	9.11647	173.632
53	6.3096	7605.5	1312.29	7717.88	9.78967	176.597
54	5.0119	7770.24	1439.58	7902.47	10.4961	179.387
55	3.9811	7964.4	1582.99	8120.19	11.2415	182.677
56	3.1623	8158.66	1740.75	8342.29	12.0442	185.562
57	2.5119	8363.97	1922.09	8581.98	12.9422	188.582
58	1.9953	8585.08	2097.42	8837.57	13.729	192.112
59	1.5849	8848.71	2243.66	9128.73	14.228	195.692
60	1.2589	9135.82	2585.69	9494.68	15.803	199.077
61	1	9373.15	2872.65	9803.47	17.0391	209.368
62	0.79433	9671.62	3228.69	10196.3	18.4606	213.143
63	0.63096	9977.83	3631.56	10618.2	19.9996	216.963
64	0.50119	10307.5	4148.83	11111.1	21.9251	221.163
65	0.39811	10632	4767.07	11651.8	24.1499	225.998
66	0.31623	11019.7	5517.98	12324.1	26.5988	231.183
67	0.25119	11529.6	6482.08	13226.8	29.3452	236.743
68	0.19953	12014.4	7605.42	14219.3	32.3349	243.298
69	0.15849	12613.7	8871.99	15421.4	35.1211	251.283
70	0.12589	13314.5	10469.8	16938	38.1796	260.414
71	0.1	14361	12322.6	18923.1	40.6316	274.899

File: Z_p50_1.txt
Index	Frequency (Hz)	Z' (Ω)	-Z'' (Ω)	Z (Ω)	-Phase (°)	Time (s)
1	1000000	2801.51	2609.21	3828.37	42.9645	20.3692
2	794330	3273.87	2523.23	4133.39	37.6222	22.2992
3	630960	3798.74	2491.7	4543.01	33.262	24.4042
4	501190	4339.83	2419.1	4968.52	29.1361	26.4043
5	398110	4869.95	2343.91	5404.66	25.7015	31.9044
6	316230	5296.71	2202.8	5736.5	22.5815	33.6294
7	251190	5580.07	2010.54	5931.22	19.8145	43.4496
8	199530	5948.26	1857.85	6231.64	17.3454	45.5246
9	158490	6251.56	1696.06	6477.55	15.179	47.2947
10	125890	6505.58	1528.56	6682.74	13.2224	49.0397
11	100000	6718.3	1363.84	6855.33	11.4753	50.9747
12	79433	6891.34	1214.83	6997.6	9.99758	54.3798
13	63096	7034.63	1072.09	7115.86	8.66528	56.3848
14	50119	7156.67	946.748	7219.02	7.53584	58.1849
15	39811	7261.95	829.111	7309.13	6.51337	59.8899
16	31623	7345.98	728.887	7382.06	5.66648	61.4449
17	25119	7415.18	644.627	7443.15	4.96843	63.065
18	19953	7481.3	575.491	7503.4	4.39876	64.835
19	15849	7537.9	513.071	7555.34	3.89386	66.385
20	12589	7591.8	462.866	7605.9	3.48896	68.02
21	10000	7635.42	424.396	7647.2	3.18137	69.4751
22	7943.3	7683.5	389.266	7693.36	2.90027	70.9001
23	6309.6	7724.78	359.349	7733.13	2.66342	72.2901
24	5011.9	7761.42	339.323	7768.83	2.50333	73.8602
25	3981.1	7799.83	320.049	7806.39	2.34969	75.3802
26	3162.3	7833.88	304.713	7839.81	2.2275	76.8402
27	2511.9	7871.68	292.176	7877.11	2.12569	78.6502
28	1995.3	7904.73	282.398	7909.77	2.04603	80.2103
29	1584.9	7939.54	276.094	7944.34	1.99164	81.6653
30	1258.9	7975.66	269.772	7980.22	1.93726	83.2003
31	1000	8009.74	264.862	8014.12	1.89394	85.0704
32	794.33	8045.85	262.257	8050.12	1.86692	86.9154
33	630.96	8079.56	261.228	8083.78	1.85184	88.5854
34	501.19	8114.31	260.584	8118.49	1.83937	90.2255
35	398.11	8151.03	261.396	8155.22	1.83679	91.7605
36	316.23	8189.78	265.897	8194.1	1.85956	93.2705
37	251.19	8221.68	269.411	8226.09	1.87682	94.9505
38	199.53	8255.85	276.56	8260.48	1.91861	96.4206
39	158.49	8293.09	286.582	8298.04	1.97917	98.0406
40	125.89	8331.39	296.367	8336.66	2.03729	99.7356
41	100	8370.62	313.056	8376.47	2.14183	101.406
42	79.433	8407.84	329.939	8414.31	2.24724	103.121
43	63.096	8449.19	355.271	8456.66	2.40775	105.116
44	50.119	8466.43	392.15	8475.51	2.65195	106.886
45	39.811	8540.74	410.088	8550.58	2.74897	116.436
46	31.623	8585.4	442.299	8596.78	2.94913	118.711
47	25.119	8641.97	482.921	8655.45	3.19841	120.916
48	19.953	8700.72	535.657	8717.2	3.52295	123.561
49	15.849	8761.15	581.668	8780.44	3.79839	126.461
50	12.589	8833.75	649.557	8857.6	4.20546	128.856
51	10	8915.57	720.756	8944.65	4.62188	131.666
52	7.9433	8994.26	799.724	9029.75	5.08109	135.491
53	6.3096	9086.57	887.654	9129.82	5.57944	140.491
54	5.0119	9194.77	995.765	9248.53	6.18087	143.256
55	3.9811	9313.45	1108.31	9379.16	6.78636	148.112
56	3.1623	9436.43	1233.41	9516.69	7.44678	151.382
57	2.5119	9603.17	1422.56	9707.96	8.42621	154.637
58	1.9953	9704.28	1655.55	9844.48	9.68144	157.862
59	1.5849	9854.39	1731.62	10005.4	9.96631	160.797
60	1.2589	10048.3	1982.64	10242	11.1618	163.832
61	1	10240.8	2288.13	10493.3	12.5949	169.507
62	0.79433	10476.8	2636.38	10803.4	14.1246	173.237
63	0.63096	10685.1	3034.73	11107.7	15.8554	177.152
64	0.50119	10937.6	3490.39	11481	17.6988	181.607
65	0.39811	11237.1	4101.8	11962.3	20.0533	188.232
66	0.31623	11554.9	4803.03	12513.4	22.5712	200.983
67	0.25119	11963.4	5647.86	13229.6	25.2717	206.733
68	0.19953	12428.8	6735.72	14136.6	28.4553	213.308
69	0.15849	12968	7933.3	15202.2	31.4567	220.813
70	0.12589	13626.9	9312.32	16504.9	34.3479	229.743
71	0.1	14196.8	11075.2	18005.8	37.9586	240.253

File: Z_p51_1.txt
Index	Frequency (Hz)	Z' (Ω)	-Z'' (Ω)	Z (Ω)	-Phase (°)	Time (s)
1	1000000	2397.57	2025.71	3138.77	40.1946	24.8182
2	794330	2744.52	1950.77	3367.18	35.4047	26.8983
3	630960	3136	1909.71	3671.72	31.3399	29.0033
4	501190	3527.55	1849.93	3983.2	27.6736	31.2284
5	398110	3903.8	1747.16	4276.94	24.1111	37.6485
6	316230	4212.45	1635.74	4518.89	21.2217	39.7485
7	251190	4424.58	1461.65	4659.75	18.2809	46.1886
8	199530	4683.73	1348.1	4873.87	16.0572	48.1487
9	158490	4895.58	1222.29	5045.86	14.0186	50.1287
10	125890	5076.77	1095.38	5193.59	12.1757	52.3688
11	100000	5221.95	972.111	5311.66	10.5454	56.3488
12	79433	5346.8	857.991	5415.2	9.11642	59.4689
13	63096	5447.33	752.339	5499.04	7.86346	62.5189
14	50119	5531.34	660.458	5570.63	6.80904	65.659
15	39811	5603.91	576.665	5633.5	5.87529	69.0591
16	31623	5659.12	502.972	5681.43	5.07899	72.3741
17	25119	5704.85	444.732	5722.15	4.45758	74.4542
18	19953	5749.03	393.195	5762.46	3.91255	78.3592
19	15849	5787.16	351.05	5797.8	3.47132	80.5143
20	12589	5821.65	314.461	5830.14	3.09187	82.7543
21	10000	5852.98	282.708	5859.81	2.76532	85.5594
22	7943.3	5883.08	258.387	5888.75	2.51484	87.7394
23	6309.6	5911.34	237.633	5916.11	2.30202	91.3345
24	5011.9	5932.88	221.128	5937	2.13452	95.2896
25	3981.1	5957.24	206.036	5960.8	1.98084	97.4946
26	3162.3	5976.68	194.394	5979.84	1.86292	99.4296
27	2511.9	6000.7	185.54	6003.57	1.77101	102.645
28	1995.3	6023.89	178.29	6026.53	1.6953	105.205
29	1584.9	6042.71	172.735	6045.18	1.63739	107.005
30	1258.9	6063.37	168.781	6065.72	1.59448	109.96
31	1000	6085.48	165.279	6087.72	1.55574	112.59
32	794.33	6104.21	163.07	6106.38	1.53025	114.76
33	630.96	6125.39	162.061	6127.53	1.51553	116.9
34	501.19	6149.01	162.29	6151.15	1.51185	119.445
35	398.11	6167.27	163.632	6169.44	1.51983	122.405
36	316.23	6192.83	165.95	6195.06	1.53499	124.49
37	251.19	6211.37	170.669	6213.71	1.57392	127.19
38	199.53	6234.88	175.419	6237.35	1.6116	132.74
39	158.49	6258.78	183.118	6261.46	1.67587	134.76
40	125.89	6277.3	192.649	6280.26	1.75784	138.13
41	100	6305.1	204.847	6308.43	1.86083	142.615
42	79.433	6329.97	218.131	6333.72	1.97364	145.34
43	63.096	6352.59	235.355	6356.95	2.12177	147.681
44	50.119	6359.35	256.421	6364.52	2.30902	150.441
45	39.811	6410.33	277.839	6416.34	2.48178	160.606
46	31.623	6442.09	304.835	6449.3	2.70917	163.936
47	25.119	6478.41	332.908	6486.96	2.94169	167.231
48	19.953	6517.83	373.976	6528.55	3.28388	169.771
49	15.849	6557.34	418.062	6570.66	3.64794	172.661
50	12.589	6597.1	467.2	6613.62	4.05087	175.301
51	10	6649.17	523.545	6669.75	4.50209	178.616
52	7.9433	6705.57	594.372	6731.86	5.06537	181.626
53	6.3096	6766.17	672.254	6799.49	5.67401	184.671
54	5.0119	6832.31	764.001	6874.89	6.38041	187.931
55	3.9811	6914.57	875.452	6969.77	7.21581	190.996
56	3.1623	6999.73	1001.61	7071.03	8.14335	194.076
57	2.5119	7107.34	1146.45	7199.21	9.16314	197.196
58	1.9953	7239.03	1341.48	7362.28	10.4985	200.557
59	1.5849	7302.73	1535.8	7462.48	11.8765	203.937
60	1.2589	7480.48	1774.89	7688.16	13.3477	207.277
61	1	7612.39	2056.68	7885.33	15.1189	213.297
62	0.79433	7790.2	2402.9	8152.37	17.1424	216.572
63	0.63096	7965.32	2794.48	8441.29	19.3324	220.662
64	0.50119	8170.27	3271.32	8800.84	21.8208	224.967
65	0.39811	8386.02	3860.37	9231.89	24.7182	230.022
66	0.31623	8644.09	4572.61	9779.01	27.8782	235.272
67	0.25119	8920.37	5454.64	10455.9	31.445	241.367
68	0.19953	9321.6	6540.22	11387.1	35.0543	248.107
69	0.15849	9719.71	7842.59	12489.2	38.8992	255.843
70	0.12589	10038.3	9421.62	13767.2	43.1849	266.618
71	0.1	10668.7	11368.6	15590.6	46.8192	277.233