Folder: Streamlit_cement_impedance/data/20250114

Note: README.md
# Software KDssZ version 1.0

This software tool works to analyze impedance measurements through a lumped circuital model.

## The repository contains:

- The Python module called [KDssZ.py](https://github.com/dantrica/Streamlit_cement_impedance/blob/c79735cefb679f8cb21de758db89e5011d7d15d4/KDssZ.py) contains the algorithms to optimize the electrical impedance measurements.
- The Python module called [appZ.py](https://github.com/dantrica/Streamlit_cement_impedance/blob/b421c1652a15b18d4e0220819822e362abc5bec6/appZ.py) contains the code to deploy the application on the Streamlit platform.
- All [data](https://github.com/dantrica/Streamlit_cement_impedance/tree/c79735cefb679f8cb21de758db89e5011d7d15d4/data) acquired during the experimental campaign is located in this repository Streamlit_cement_impedance/data/.
- The [Figures](https://github.com/dantrica/Streamlit_cement_impedance/tree/c79735cefb679f8cb21de758db89e5011d7d15d4/figures) folder contains an image describing the lumped circuit model.

## The left sidebar functionalities:

The user can upload the impedance measurements in format .txt. Moreover, this object contains the elements that will be presented in the left sidebar, such as i) the uploading file option, ii) the lumped circuit model, iii) Add and Remove buttons to move data in the Optimization zone, iv) Run and Reset buttons to start and clear the optimization.

## Project Description: 

$\texttt{KDssZ}$ has been developed to optimize experimental electrical impedance data to a lumped circuit model. This approach allows users to correlate the interactions among the components in the composite-electrodes, cement, nanoparticles, and pores with the measured impedance, which is analyzed across three frequency ranges: high, medium, and low. Although the software has been validated with impedance measurements from gold nanoparticles/cement-based composites, it can also be used to study the electrical properties of other cement-based composites. KDssZ is deployed on the Streamlit platform, and in line with the principles of open science, it allows researchers working on similar studies to use this tool to explore new research questions related to cement-based composites.

## Usage instructions:

The main functionalities of the software KDssZ are displayed in Figure~\ref{}, and enumerated according to the following list:

1. Push button \texttt{Browse Files} to upload \texttt{.txt} files with electrical impedance spectroscopy data.
2. Help menu explaining the format files to be received; help hints boxes to report whether a file was added previously or it is already in the optimization zone; and help tips on buttons.
3. Choosing the file data since Select tag.
4. Buttons $\texttt{Add data}$ and $\texttt{Remove}$, to add or remove data to the optimization zone.
5. Buttons $\texttt{Run}$ and $\texttt{Reset}$, to start the optimization, create the plots and return the DataFrame with the parameters.
6. Figures: wide mode and saving options.
7. T

File: Z_CNT1_1.txt
Index	Frequency (Hz)	Z' (Ω)	-Z'' (Ω)	Z (Ω)	-Phase (°)	Time (s)
1	1000000	38247.8	27741.2	47249	35.9534	53.0448
2	794328.25	37606.5	33410.1	50303.9	41.6182	63.39
3	630957.375	39042.3	39945.8	55856.7	45.6554	68.7951
4	501187	41578.1	47216.9	62914	48.6336	71.5051
5	398107	45408.3	56520.1	72501.3	51.2216	80.0953
6	316228	52044.6	67231.1	85021.5	52.256	82.2803
7	251189	60699.4	80188	100571	52.8756	88.9605
8	199526	70673	96400.5	119531	53.7542	91.1255
9	158489	85760.5	114765	143268	53.2302	93.5056
10	125893	104862	135825	171594	52.3305	95.1406
11	100000	125329	156932	200836	51.3884	96.8706
12	79432.8	190419	157512	247122	39.5972	102.231
13	63095.7	230004	166102	283711	35.8356	106.846
14	50118.7	272970	171315	322275	32.1122	114.091
15	39810.7	320684.453	174440	365058	28.5444	116.816
16	31622.8	364101	173787	403449	25.5154	125.351
17	25118.9	405603	167555	438849	22.4456	128.941
18	19952.6	442970	159402	470777	19.7911	131.561
19	15848.9	474970	149452	497927.958	17.4665	139.691
20	12589.3	502916	135599.959	520876	15.0897	150.197
21	10000	526613	120157.084	540148	12.8531	158.517
22	7943.28	552618.996	50176.8	554892	5.18813	164.832
23	6309.57	566056	42865.3	567677	4.33053	171.417
24	5011.87	576116	37970.6	577366	3.7708	183.317
25	3981.07	586032	32751.4	586947	3.19874	185.422
26	3162.28	592017	27827	592671	2.69113	187.327
27	2511.89	596022	27080.8	596637.156	2.6015	189.152
28	1995.26	603916	25160.2	604439	2.38566	191.002
29	1584.89	605118	20959.3	605481	1.98374	192.732
30	1258.93	603210	20073.5	603544	1.90598	194.482
31	1000	613913	17357.9	614158	1.61956	196.567
32	794.328	614439	19222.7	614740	1.79191	198.748
33	630.957	615417	15763.1	615619	1.46723	200.773
34	501.187	618273	15668.4	618471	1.45169	202.568
35	398.107	620261	14972	620442	1.38275	204.368
36	316.228	621493	14555.9	621663	1.34167	206.388
37	251.189	623872	14300.4	624036	1.3131	208.418
38	199.526	625662	13201.5	625801.075	1.20877	210.473
39	158.489	627451	13006.2	627586	1.18749	212.513
40	125.893	629455.96	12934.2	629589	1.17716	214.583
41	100	630911	12543.1	631035	1.13895	216.658
42	79.4328	632650	12401.3	632771	1.12298	218.663
43	63.0957	634056	11845.4	634167	1.07027	220.873
44	50.1187	635598	11274.3	635698	1.01621	222.968
45	39.8107	637042	10783.8	637133	0.96981	232.878
46	31.6228	638495	10233.7	638577	0.918248	235.118
47	25.1189	639963	9823.84	640038	0.879459	237.403
48	19.9526	641445	9361.05	641513	0.836098	240.178
49	15.8489	642471	8920.39	642533	0.795472	242.818
50	12.5893	643742	8359.88	643796	0.744023	245.613
51	10	644817	8029.04	644867	0.71339	248.413
52	7.94328	645956	8648.88	646014	0.767103	251.448
53	6.30957	647140	8028.19	647190	0.710754	254.614
54	5.01187	648305	7291.44	648346	0.644375	257.674
55	3.98107	649386	6646.57	649420	0.586412	260.859
56	3.16228	650345	6094.28	650374	0.536893	264.019
57	2.51189	650960	5234.89	650981	0.460751	267.284
58	1.99526	651647	4724.87	651664	0.415425	270.804
59	1.58489	652633	4135.38	652646	0.363047	274.104
60	1.25893	653051	3530.99	653060	0.309791	277.494
61	1	653422	2887.31	653428	0.253174	283.879
62	0.794328	655772	4193.01	655785	0.366344	287.824
63	0.630957	654331	3886.9	654342.049	0.340348	291.909
64	0.501187	654351	2823.14	654358	0.247196	296.484
65	0.398107	654045	1678.65	654047	0.147053	301.444
66	0.316228	653939	628.75	653940	0.0550887	306.685
67	0.251189	653772	-306.217	653772	-0.0268365	312.8
68	0.199526	653643	-1294.92	653645	-0.113507	319.5
69	0.158489	653270	-2353.94	653275	-0.206454	327.295
70	0.125893	652893.949	-3362.77	652902.609	-0.295102	336.46
71	0.1	651952	-4424.13	651967	-0.388802	347.15

File: Z_CNT1p5_1.txt
Index	Frequency (Hz)	Z' (Ω)	-Z'' (Ω)	Z (Ω)	-Phase (°)	Time (s)
1	1000000	1863.27	4202.09	4596.67	66.0868	53.0448
2	794328.25	2351.65	4949.7	5479.94	64.5871	63.39
3	630957.375	2949.53	5810.61	6516.35	63.0872	68.7951
4	501187	3675.21	6820.82	7747.95	61.6832	71.5051
5	398107	4531.37	7954.77	9154.87	60.3323	80.0953
6	316228	5546.02	9241.18	10777.6	59.0303	82.2803
7	251189	6802.49	10699.5	12678.8	57.5527	88.9605
8	199526	8259.11	12367.3	14871.5	56.2642	91.1255
9	158489	10000.8	14222.9	17386.9	54.8872	93.5056
10	125893	12173.6	16240.4	20296.4	53.1452	95.1406
11	100000	14692	18373.7	23525.5	51.3534	96.8706
12	79432.8	17599.1	20614.2	27104.9	49.5114	102.231
13	63095.7	21233.8	22653.3	31049.1	46.8525	106.846
14	50118.7	25378.1	24575.5	35327.1	44.0795	114.091
15	39810.7	30135.1	26172.2	39913.7	40.9741	116.816
16	31622.8	35118.4	27356.6	44516.1	37.9179	125.351
17	25118.9	40401.1	28013.9	49163.3	34.7372	128.941
18	19952.6	45819.2	28071.5	53734.6	31.494	131.561
19	15848.9	51055.7	27488.4	57985.3	28.298	139.691
20	12589.3	56039.2	26313.8	61909.7	25.1529	150.197
21	10000	60621.4	24826.2	65508	22.2705	158.517
22	7943.28	64664.9	22967.9	68622.7	19.5542	164.832
23	6309.57	68286.8	20925.7	71421.1	17.0371	171.417
24	5011.87	71222.8	18885.3	73684.1	14.8507	183.317
25	3981.07	73798.2	16845.1	75696.3	12.858	185.422
26	3162.28	75849	14841.9	77287.5	11.0716	187.327
27	2511.89	77682.9	13053	78771.9	9.53827	189.152
28	1995.26	79122.4	11478.2	79950.6	8.25423	191.002
29	1584.89	80317.1	10017.2	80939.4	7.10926	192.732
30	1258.93	81377.5	8826.67	81854.8	6.19043	194.482
31	1000	82173.8	7850.38	82547.9	5.45713	196.567
32	794.328	83035.7	6723.47	83307.4	4.62919	198.748
33	630.957	83690.9	5945.43	83901.9	4.06348	200.773
34	501.187	84305.7	5253.87	84469.2	3.56602	202.568
35	398.107	84821.8	4702.02	84952	3.17289	204.368
36	316.228	85290.7	4237.54	85395.9	2.84431	206.388
37	251.189	85724.1	3861.53	85811.1	2.5792	208.418
38	199.526	86118.7	3560.36	86192.3	2.3674	210.473
39	158.489	86501.427	3293.36	86564.1	2.18036	212.513
40	125.893	86852.1	3097.12	86907.3	2.04228	214.583
41	100	87207.3	2936.77	87256.7	1.92875	216.658
42	79.4328	87544.2	2884.58	87591.7	1.88721	218.663
43	63.0957	87878.8	2776.33	87922.7	1.80953	220.873
44	50.1187	88186.9	2697.44	88228.2	1.752	222.968
45	39.8107	88528.5	2651.9	88568.2	1.7158	232.878
46	31.6228	88862.4	2626.48	88901.2	1.69298	235.118
47	25.1189	89205.2	2627.68	89243.9	1.68725	237.403
48	19.9526	89548.2	2638.19	89587	1.68751	240.178
49	15.8489	89916.4	2662.78	89955.9	1.69626	242.818
50	12.5893	90281.5	2703.38	90321.9	1.71515	245.613
51	10	90682	2754.49	90723.9	1.73984	248.413
52	7.94328	91062.5	2904.6	91108.8	1.82693	251.448
53	6.30957	91449.6	2936.75	91496.7	1.83932	254.614
54	5.01187	91894.8	2986.51	91943.4	1.86141	257.674
55	3.98107	92355.5	3030.7	92405.2	1.87952	260.859
56	3.16228	92799.5	3075.75	92850.5	1.89832	264.019
57	2.51189	93265.3	3126.07	93317.7	1.91972	267.284
58	1.99526	93728.2	3173.54	93781.888	1.93924	270.804
59	1.58489	94221	3205.87	94275.5	1.94874	274.104
60	1.25893	94714.9	3230.37	94770	1.95339	277.494
61	1	95201.1	3247.66	95256.4	1.95381	283.879
62	0.794328	95717.4	3227.76	95771.9	1.93138	287.824
63	0.630957	96202.6	3219.83	96256.4	1.91693	291.909
64	0.501187	96692.8	3199.87	96745.7	1.89541	296.484
65	0.398107	97210.8	3175.36	97262.6	1.87088	301.444
66	0.316228	97698.1	3130	97748.2	1.83498	306.685
67	0.251189	98143.5	3075.29	98191.7	1.79475	312.8
68	0.199526	98595.1	3011.7	98641.1	1.74962	319.5
69	0.158489	99046.4	2941.41	99090	1.70103	327.295
70	0.125893	99488.2	2850.84	99529	1.64136	336.46
71	0.1	99921.7	2764.05	99959.972	1.58452	347.15