Folder: Streamlit_cement_impedance/data/plate_beam (part 3)

File: Z_beam3_20241212.txt
Index	Frequency (Hz)	Z' (Ω)	-Z'' (Ω)	Z (Ω)	-Phase (°)	Time (s)
1	1000000	4881.44	8940.28	10186.1	61.3652	53.0448
2	794328.25	6198.89	10258.6	11986	58.857	63.39
3	630957.375	7711.74	11695.3	14008.9	56.5996	68.7951
4	501187	9552.56	13283.8	16361.8	54.2795	71.5051
5	398107	11596	15051.3	19000.2	52.388	80.0953
6	316228	14097.3	16838.4	21960.5	50.0636	82.2803
7	251189	16868.3	18736.1	25210.7	48.0029	88.9605
8	199526	19924.4	20752.2	28768.6	46.1658	91.1255
9	158489	23726.1	22670.7	32816	43.697	93.5056
10	125893	27851.1	24642	37187.5	41.5016	95.1406
11	100000	32305.1	26099.6	41530.8	38.935	96.8706
12	79432.8	37068.6	27432.1	46115.1	36.5028	102.231
13	63095.7	42259.9	28030.1	50710.8	33.5555	106.846
14	50118.7	47445.1	28294.2	55241.268	30.8101	114.091
15	39810.7	52751.9	28156.1	59795.8	28.0909	116.816
16	31622.8	57705.3	27824.1	64063.1	25.7422	125.351
17	25118.9	62459.7	27168.3	68112.7	23.5078	128.941
18	19952.6	66934.9	26303.6	71917.7	21.4535	131.561
19	15848.9	71122	25313.7	75492.5	19.5916	139.691
20	12589.3	75103.4	24298.8	78936.4	17.9284	150.197
21	10000	78722	23158.8	82057.8	16.3931	158.517
22	7943.28	82007.8	22307.7	84987.7	15.2174	164.832
23	6309.57	85201.4	21023	87756.7	13.8606	171.417
24	5011.87	88117.7	19901.4	90337.1	12.7267	183.317
25	3981.07	90842.2	18864.7	92780.3	11.7315	185.422
26	3162.28	93343.1	17906.6	95045.2	10.8594	187.327
27	2511.89	95665.9	17103.4	97182.7	10.1364	189.152
28	1995.26	97862.8	16380.1	99224.2	9.502	191.002
29	1584.89	100004	15850.6	101252	9.00647	192.732
30	1258.93	102076.878	15423.7	103236	8.59235	194.482
31	1000	104109.204	14985	105182	8.19062	196.567
32	794.328	106035	14730.8	107054	7.90913	198.748
33	630.957	108018	14551.4	108994	7.67224	200.773
34	501.187	109940.742	14497.6	110893	7.5121	202.568
35	398.107	111877	14562.5	112821	7.41623	204.368
36	316.228	113832	14712.4	114778	7.36449	206.388
37	251.189	115833	14967.7	116796	7.36284	208.418
38	199.526	117842	15286.6	118829	7.3912	210.473
39	158.489	119924	15722.5	120950	7.46908	212.513
40	125.893	122084	16245.9	123160.336	7.5799	214.583
41	100	124333	16838.2	125468	7.71254	216.658
42	79.4328	126659	17634.3	127881	7.92612	218.663
43	63.0957	129159	18372.6	130460	8.09585	220.873
44	50.1187	131757.913	19160	133144	8.27387	222.968
45	39.8107	134544.387	20022.5	136026	8.46446	232.878
46	31.6228	137427	20923	139011	8.6567	235.118
47	25.1189	140512.3	21871	142204	8.84718	237.403
48	19.9526	143726	22833.9	145529	9.02719	240.178
49	15.8489	147120	23833.6	149038	9.20206	242.818
50	12.5893	150657	24852.7	152693	9.36725	245.613
51	10	154399	25890	156554	9.51894	248.413
52	7.94328	158191	27100.1	160496	9.72111	251.448
53	6.30957	162169	28112.4	164588	9.83462	254.614
54	5.01187	166365	29139.1	168897	9.93469	257.674
55	3.98107	170763	30190.2	173412	10.026	260.859
56	3.16228	175140	31205.6	177898	10.1027	264.019
57	2.51189	179771	32330.9	182655	10.1954	267.284
58	1.99526	184315	33403.4	187318	10.2722	270.804
59	1.58489	189145	34583	192280.162	10.3614	274.104
60	1.25893	193941	35801	197218	10.4589	277.494
61	1	198870	37166.7	202314	10.5858	283.879
62	0.794328	203733.235	39132.7	207457	10.8728	287.824
63	0.630957	208734.901	40789.5	212683	11.057	291.909
64	0.501187	213716.861	42785.8	217958	11.3209	296.484
65	0.398107	218789	45295.5	223429	11.6966	301.444
66	0.316228	223853	48340.7	229014	12.1858	306.685
67	0.251189	228831	52243.4	234718.809	12.8605	312.8
68	0.199526	233977	57143.2	240853.651	13.7245	319.5
69	0.158489	239359	63176.8	247556	14.7855	327.295
70	0.125893	245141.765	70552.9	255093	16.0561	336.46
71	0.1	251522	79401.2	263758	17.52	347.15

File: Z_beam3_20241219.txt
Index	Frequency (Hz)	Z' (Ω)	-Z'' (Ω)	Z (Ω)	-Phase (°)	Time (s)
1	1000000	5285.93	9174.27	10588.1	60.0508	53.0448
2	794328.25	6730.32	10459.8	12438	57.2409	63.39
3	630957.375	8338.81	11928.3	14554.1	55.0436	68.7951
4	501187	10292	13457.8	16942.2	52.5925	71.5051
5	398107	12260.4	15131.9	19475.4	50.9845	80.0953
6	316228	14779.3	16923.9	22468.7	48.8699	82.2803
7	251189	17586.2	18835.2	25769	46.9642	88.9605
8	199526	20710.3	20735.2	29306.4	45.0344	91.1255
9	158489	24442.5	22606.1	33293.7	42.7648	93.5056
10	125893	28510.7	24343.1	37489.3	40.4914	95.1406
11	100000	33049.3	25811.3	41934.2	37.9897	96.8706
12	79432.8	37814.8	27041.1	46488.5	35.5683	102.231
13	63095.7	42925.2	27489	50972.7	32.6352	106.846
14	50118.7	48005.2	27638.7	55393.1	29.9309	114.091
15	39810.7	53300.7	27381.6	59922.6	27.1905	116.816
16	31622.8	58019.9	26997.9	63993.7	24.9536	125.351
17	25118.9	62621.3	26321.5	67928.3	22.7984	128.941
18	19952.6	66848.5	25553.2	71566	20.9196	131.561
19	15848.9	70998.5	24547.4	75122.3	19.0726	139.691
20	12589.3	74685.8	23447.8	78280.1	17.4298	150.197
21	10000	78233.5	22460.1	81393.7	16.0183	158.517
22	7943.28	81434.3	21691.7	84273.8	14.9156	164.832
23	6309.57	84489.7	20560.2	86955.4	13.6768	171.417
24	5011.87	87340.2	19486.4	89487.6	12.5772	183.317
25	3981.07	89967.9	18515.7	91853.4	11.6293	185.422
26	3162.28	92438.3	17656.2	94109.4	10.8135	187.327
27	2511.89	94797.8	16854.4	96284.4	10.0814	189.152
28	1995.26	97010.5	16224.3	98357.8	9.49446	191.002
29	1584.89	99154.3	15723.3	100393	9.01058	192.732
30	1258.93	101204	15394.9	102368	8.64938	194.482
31	1000	103165	14972.112	104246	8.25758	196.567
32	794.328	105245	14641	106258	7.91979	198.748
33	630.957	107228.144	14520.7	108207	7.71198	200.773
34	501.187	109111	14461.6	110065	7.55	202.568
35	398.107	111046	14493.6	111988	7.43615	204.368
36	316.228	112988.972	14652.3	113935	7.38884	206.388
37	251.189	114963	14888.4	115923	7.37906	208.418
38	199.526	116973	15203.7	117957	7.40555	210.473
39	158.489	119048	15607.9	120067	7.46919	212.513
40	125.893	121176	16120.4	122243	7.57775	214.583
41	100	123408	16707.2	124533	7.70996	216.658
42	79.4328	125715	17491.9	126927	7.92123	218.663
43	63.0957	128190	18224.9	129479	8.09155	220.873
44	50.1187	130760	19009.3	132135	8.27143	222.968
45	39.8107	133524	19870	134995	8.46417	232.878
46	31.6228	136381	20767.2	137954	8.6581	235.118
47	25.1189	139445	21709.4	141125	8.84898	237.403
48	19.9526	142635	22668.8	144425	9.03039	240.178
49	15.8489	146004.307	23665.6	147910	9.2069	242.818
50	12.5893	149517	24684.7	151541	9.37477	245.613
51	10	153240	25697.7	155379	9.51973	248.413
52	7.94328	156996	26911.4	159286	9.7268	251.448
53	6.30957	160972.074	27912.4	163374	9.83721	254.614
54	5.01187	165145.729	28915.9	167658	9.93144	257.674
55	3.98107	169509	29942.4	172133	10.0175	260.859
56	3.16228	173875	30945.6	176607	10.0916	264.019
57	2.51189	178444	32017.2	181294	10.172	267.284
58	1.99526	182979	33074.8	185945	10.246	270.804
59	1.58489	187760	34205	190850	10.3246	274.104
60	1.25893	192519	35388.8	195744	10.4158	277.494
61	1	197398	36689.6	200778	10.5292	283.879
62	0.794328	202243	38532.6	205881.364	10.787	287.824
63	0.630957	207186	40138.5	211038	10.9642	291.909
64	0.501187	212098	42048.7	216226	11.2136	296.484
65	0.398107	217093	44467.6	221600	11.5759	301.444
66	0.316228	222062	47392	227063	12.0472	306.685
67	0.251189	226963	51177.3	232662	12.707	312.8
68	0.199526	232035	55915.6	238677	13.5488	319.5
69	0.158489	237350	61781	245259	14.59	327.295
70	0.125893	243050	68907.6	252629	15.8287	336.46
71	0.1	249341	77473.8	261100	17.2607	347.15

File: Z_beam4_20241120.txt
Index	Frequency (Hz)	Z' (Ω)	-Z'' (Ω)	Z (Ω)	-Phase (°)	Time (s)
1	1000000	2191.64	5950.99	6341.73	69.7821	53.0448
2	794328.25	3163.95	6879.54	7572.22	65.302	63.39
3	630957.375	4274.21	7842.11	8931.27	61.4081	68.7951
4	501187	5608.05	8828.37	10459	57.5751	71.5051
5	398107	7030.08	9833.62	12088.1	54.4389	80.0953
6	316228	8779.2	10910.7	14004.2	51.1783	82.2803
7	251189	10612.9	11911.8	15953.8	48.3003	88.9605
8	199526	12728.8	12934.6	18147.3	45.4594	91.1255
9	158489	14963	13903.3	20425.3	42.8977	93.5056
10	125893	17459.1	14788.1	22880.3	40.265	95.1406
11	100000	20237.9	15475.8	25476.9	37.405	96.8706
12	79432.8	22786.8	15913.8	27793.7	34.9295	102.231
13	63095.7	25647.6	16032.9	30246.5	32.0105	106.846
14	50118.7	28469.6	15973.2	32644.5	29.2951	114.091
15	39810.7	31309.9	15717.8	35033.6	26.657	116.816
16	31622.8	33872.2	15412.3	37213.7	24.4661	125.351
17	25118.9	36339.8	14999.3	39313.6	22.4284	128.941
18	19952.6	38685.6	14523.7	41322.1	20.5775	131.561
19	15848.9	40858.7	14036.4	43202.4	18.9594	139.691
20	12589.3	42941.4	13542.5	45026.3	17.5038	150.197
21	10000	44905.2	13052.1	46763.6	16.207	158.517
22	7943.28	46806.3	12578.9	48467	15.0424	164.832
23	6309.57	48588.3	12087.9	50069.4	13.9706	171.417
24	5011.87	50301.3	11638.7	51630.2	13.0278	183.317
25	3981.07	51844.8	11193.9	53039.5	12.1839	185.422
26	3162.28	53394.3	10839	54483.4	11.4751	187.327
27	2511.89	54886.4	10453.5	55873	10.7832	189.152
28	1995.26	56289.2	10185.6	57203.4	10.2567	191.002
29	1584.89	57669.3	9948.02	58521.1	9.78726	192.732
30	1258.93	58987.9	9690.54	59778.6	9.32923	194.482
31	1000	60286.6	9491	61029.1	8.94673	196.567
32	794.328	61615.3	9440.13	62334.3	8.7106	198.748
33	630.957	62939.2	9404.17	63637.9	8.49808	200.773
34	501.187	64124.7	9307.91	64796.7	8.25899	202.568
35	398.107	65375.111	9327.12	66037.1	8.11964	204.368
36	316.228	66628.7	9371.18	67284.5	8.00601	206.388
37	251.189	67897.5	9487.23	68557.1	7.95436	208.418
38	199.526	69180	9646.56	69849.3	7.93822	210.473
39	158.489	70469.6	9866.61	71156.9	7.9703	212.513
40	125.893	71820.2	10172.76	72537.1	8.06186	214.583
41	100	73229.6	10497.7	73978.2	8.15793	216.658
42	79.4328	74691.4	10921.6	75485.6	8.319	218.663
43	63.0957	76231.1	11361.1	77073.1	8.47668	220.873
44	50.1187	77830.2	11835.4	78725	8.64652	222.968
45	39.8107	79538.1	12356.5	80492.2	8.83049	232.878
46	31.6228	81307.4	12904.7	82325.1	9.0185	235.118
47	25.1189	83194.4	13481.6	84279.7	9.20475	237.403
48	19.9526	85158.4	14072.7	86313.4	9.38351	240.178
49	15.8489	87227.1	14697.2	88456.6	9.56412	242.818
50	12.5893	89387.1	15345.2	90694.7	9.74109	245.613
51	10	91659.4	16004.8	93046.2	9.90467	248.413
52	7.94328	93984.1	16753.8	95465.7	10.1075	251.448
53	6.30957	96416.9	17437.4	97981.1	10.2514	254.614
54	5.01187	98986.4	18147.3	100636	10.3887	257.674
55	3.98107	101673	18895.6	103414	10.5281	260.859
56	3.16228	104396	19648.9	106229.441	10.6592	264.019
57	2.51189	107248	20504.4	109191	10.8236	267.284
58	1.99526	110089	21354.5	112141	10.9776	270.804
59	1.58489	113148	22307.5	115326	11.153	274.104
60	1.25893	116229	23312.2	118543	11.3414	277.494
61	1	119462	24429.6	121934	11.5575	283.879
62	0.794328	122833	25694.7	125491	11.815	287.824
63	0.630957	126269	27043.1	129133	12.0884	291.909
64	0.501187	129809	28554.3	132912.59	12.4059	296.484
65	0.398107	133544	30303.3	136939	12.7849	301.444
66	0.316228	137379	32250.6	141113	13.2114	306.685
67	0.251189	141286.313	34531.6	145445	13.7343	312.8
68	0.199526	145383	37179.3	150062	14.345	319.5
69	0.158489	149620	40267.5	154944	15.0632	327.295
70	0.125893	154058	43880.4	160185	15.8986	336.46
71	0.1	158746	48131.3	165882	16.8672	347.15

File: Z_beam4_20241129.txt
Index	Frequency (Hz)	Z' (Ω)	-Z'' (Ω)	Z (Ω)	-Phase (°)	Time (s)
1	1000000	2411.82	6241.77	6691.53	68.8734	53.0448
2	794328.25	3450.03	7204.48	7987.94	64.4115	63.39
3	630957.375	4600	8194.14	9397.02	60.6912	68.7951
4	501187	6029.01	9193.96	10994.4	56.7448	71.5051
5	398107	7504.5	10216.2	12676.3	53.7001	80.0953
6	316228	9248.92	11306.2	14607.3	50.7155	82.2803
7	251189	11215.8	12360.5	16690.6	47.7799	88.9605
8	199526	13378.6	13474.3	18988	45.2043	91.1255
9	158489	15716.4	14297	21246.4	42.2923	93.5056
10	125893	18361.6	15082.7	23762.1	39.4006	95.1406
11	100000	21041.2	15799.8	26312.8	36.9028	96.8706
12	79432.8	23813.6	16426.8	28929.8	34.5982	102.231
13	63095.7	26760.8	16526.4	31452.5	31.6978	106.846
14	50118.7	29661	16480.6	33932.1	29.058	114.091
15	39810.7	32570.7	16228	36389.6	26.4843	116.816
16	31622.8	35242.7	15911.8	38668.2	24.2987	125.351
17	25118.9	37784.2	15508.1	40842.9	22.3151	128.941
18	19952.6	40200.4	15046.7	42924.1	20.5205	131.561
19	15848.9	42468.2	14560.9	44895	18.9251	139.691
20	12589.3	44632.8	14059.7	46794.9	17.4848	150.197
21	10000	46699.5	13575.5	48632.7	16.209	158.517
22	7943.28	48666.2	13072.5	50391.4	15.0356	164.832
23	6309.57	50521.6	12594.8	52067.9	13.9983	171.417
24	5011.87	52272.4	12157.6	53667.6	13.0932	183.317
25	3981.07	53962.3	11706.8	55217.6	12.2403	185.422
26	3162.28	55564.8	11256.9	56693.6	11.4526	187.327
27	2511.89	57060.2	10924.7	58096.6	10.8386	189.152
28	1995.26	58522.6	10589.8	59473	10.2568	191.002
29	1584.89	60052.1	10338.2	60935.5	9.76794	192.732
30	1258.93	61373	10139.4	62204.9	9.38104	194.482
31	1000	62866.5	9971.33	63652.4	9.01267	196.567
32	794.328	64137.5	9838.07	64887.6	8.72065	198.748
33	630.957	65454.5	9757.11	66177.7	8.47848	200.773
34	501.187	66760.7	9733.88	67466.6	8.29541	202.568
35	398.107	68066.8	9752.61	68762	8.15384	204.368
36	316.228	69390.6	9808.45	70080.4	8.04553	206.388
37	251.189	70707.2	9916.36	71399.2	7.9834	208.418
38	199.526	72056.6	10085.9	72759	7.96807	210.473
39	158.489	73436.9	10258.6	74149.9	7.95236	212.513
40	125.893	74837.6	10557.7	75578.7	8.02998	214.583
41	100	76300.6	10918.7	77077.8	8.14382	216.658
42	79.4328	77807.7	11394.4	78637.6	8.33139	218.663
43	63.0957	79409.7	11849.4	80289	8.48698	220.873
44	50.1187	81077.7	12340.1	82011.4	8.65406	222.968
45	39.8107	82853.2	12878.7	83848.1	8.83533	232.878
46	31.6228	84695.7	13449.3	85756.9	9.02299	235.118
47	25.1189	86659	14056.9	87791.7	9.21365	237.403
48	19.9526	88702.9	14676.7	89908.9	9.395	240.178
49	15.8489	90861.9	15332.2	92146.4	9.57797	242.818
50	12.5893	93118.3	16006.1	94483.9	9.75328	245.613
51	10	95491	16703.791	96941	9.92209	248.413
52	7.94328	97915.8	17502.7	99467.8	10.1347	251.448
53	6.30957	100453	18217.1	102092	10.2788	254.614
54	5.01187	103134	18959.7	104862.26	10.4167	257.674
55	3.98107	105951	19740.6	107774.212	10.5543	260.859
56	3.16228	108794	20549.1	110717	10.6961	264.019
57	2.51189	111782	21418.3	113816	10.8468	267.284
58	1.99526	114766.938	22312.5	116916	11.002	270.804
59	1.58489	117965	23302.1	120245	11.174	274.104
60	1.25893	121195	24336	123614	11.354	277.494
61	1	124585	25479.3	127163.965	11.5583	283.879
62	0.794328	128100	26796.1	130873	11.8148	287.824
63	0.630957	131712	28174.2	134692	12.074	291.909
64	0.501187	135412	29696.5	138631	12.3694	296.484
65	0.398107	139350	31456.3	142856	12.7205	301.444
66	0.316228	143336	33409.7	147178	13.1206	306.685
67	0.251189	147415	35684.5	151672	13.6077	312.8
68	0.199526	151672.018	38337.8	156442.291	14.1854	319.5
69	0.158489	156073	41422.2	161476	14.8638	327.295
70	0.125893	160690	45054.4	166887	15.6625	336.46
71	0.1	165533	49300.4	172718.439	16.585	347.15

File: Z_beam4_20241205.txt
Index	Frequency (Hz)	Z' (Ω)	-Z'' (Ω)	Z (Ω)	-Phase (°)	Time (s)
1	1000000	2006.26	6068.04	6391.1	71.7047	53.0448
2	794328.25	2974.7	7022.92	7626.94	67.0439	63.39
3	630957.375	4090.77	8055.74	9034.89	63.0782	68.7951
4	501187	5353.36	9160.18	10609.8	59.6973	71.5051
5	398107	6791.97	10302	12339.5	56.6037	80.0953
6	316228	8543.61	11474.6	14305.9	53.3298	82.2803
7	251189	10521.6	12731.8	16516.7	50.4294	88.9605
8	199526	12621.3	13958.1	18818.2	47.8794	91.1255
9	158489	14976.1	15162.8	21311.8	45.3549	93.5056
10	125893	17749.3	16370.2	24145.8	42.6855	95.1406
11	100000	20551.1	17297.2	26861.5	40.0863	96.8706
12	79432.8	23602.9	18092.4	29739.4	37.4713	102.231
13	63095.7	26908	18465.7	32634.7	34.46	106.846
14	50118.7	30228.8	18651.8	35520	31.6755	114.091
15	39810.7	33608.7	18589.6	38407.3	28.9478	116.816
16	31622.8	36776	18373.3	41110.2	26.5468	125.351
17	25118.9	39839.4	18001.6	43717.6	24.3161	128.941
18	19952.6	42735.5	17494.7	46177.8	22.2628	131.561
19	15848.9	45463.3	16912.1	48507	20.405	139.691
20	12589.3	48027.9	16311.5	50722.2	18.7588	150.197
21	10000	50440.9	15651.9	52813.5	17.2392	158.517
22	7943.28	52714	15012	54809.9	15.896	164.832
23	6309.57	54891.9	14370.3	56741.8	14.6704	171.417
24	5011.87	56907.722	13734.5	58541.7	13.5687	183.317
25	3981.07	58808.1	13166.4	60264	12.6197	185.422
26	3162.28	60579.7	12644.1	61885.1	11.7894	187.327
27	2511.89	62290.9	12081.6	63451.8	10.9764	189.152
28	1995.26	63883.5	11726	64950.8	10.401	191.002
29	1584.89	65396.1	11296.9	66364.6	9.80086	192.732
30	1258.93	66896.2	11053.5	67803.3	9.38244	194.482
31	1000	68320.9	10785.4	69167	8.97089	196.567
32	794.328	69830.3	10722.819	70648.8	8.72989	198.748
33	630.957	71315.8	10486	72082.6	8.36461	200.773
34	501.187	72718.6	10454.1	73466.2	8.18081	202.568
35	398.107	74143.4	10474.4	74879.6	8.04106	204.368
36	316.228	75562.3	10558.6	76296.4	7.95464	206.388
37	251.189	76999.2	10698	77738.8	7.90982	208.418
38	199.526	78454.6	10908.8	79209.4	7.91596	210.473
39	158.489	79943.9	11159.9	80719.1	7.94697	212.513
40	125.893	81461.2	11486.8	82267.1	8.02635	214.583
41	100	83049	11873.5	83893.5	8.13641	216.658
42	79.4328	84693.2	12384.3	85593.9	8.31916	218.663
43	63.0957	86434.4	12872.8	87387.7	8.47091	220.873
44	50.1187	88239.9	13404.3	89252.2	8.63764	222.968
45	39.8107	90165.6	13990.1	91244.5	8.81968	232.878
46	31.6228	92167.8	14611.3	93318.8	9.00808	235.118
47	25.1189	94294.6	15271.459	95523.2	9.19945	237.403
48	19.9526	96512.6	15951.8	97822	9.38511	240.178
49	15.8489	98854.1	16673.7	100250	9.57396	242.818
50	12.5893	101304	17409.7	102789	9.75134	245.613
51	10	103878.924	18181.2	105458	9.92751	248.413
52	7.94328	106517	19050.6	108207	10.1402	251.448
53	6.30957	109280.03	19842	111067	10.2911	254.614
54	5.01187	112203	20668.8	114091	10.4374	257.674
55	3.98107	115268	21544.9	117264	10.5871	260.859
56	3.16228	118349	22442	120458	10.7373	264.019
57	2.51189	121611	23422.6	123847	10.9018	267.284
58	1.99526	124863	24422.1	127228	11.0669	270.804
59	1.58489	128335	25542.6	130852	11.2565	274.104
60	1.25893	131856	26715.7	134535	11.4538	277.494
61	1	135548	28022.6	138414	11.6805	283.879
62	0.794328	139381	29546.7	142478.727	11.9686	287.824
63	0.630957	143309	31154.5	146656	12.2649	291.909
64	0.501187	147391	32866.6	151011	12.5707	296.484
65	0.398107	151676	34887.7	155636	12.9536	301.444
66	0.316228	156087	37129.5	160442	13.3807	306.685
67	0.251189	160588	39722.2	165428	13.8935	312.8
68	0.199526	165296.639	42743.1	170734	14.4982	319.5
69	0.158489	170164	46251.3	176337	15.2059	327.295
70	0.125893	175273	50337.6	182358	16.0238	336.46
71	0.1	180648	55130.1	188873	16.9711	347.15

File: Z_beam4_20241212.txt
Index	Frequency (Hz)	Z' (Ω)	-Z'' (Ω)	Z (Ω)	-Phase (°)	Time (s)
1	1000000	2219.36	6616.08	6978.4	71.456	53.0448
2	794328.25	3250.23	7717.02	8373.55	67.1603	63.39
3	630957.375	4523.62	8915.84	9997.76	63.0982	68.7951
4	501187	5893.43	10122.3	11713	59.7912	71.5051
5	398107	7543.31	11438.8	13702.1	56.5972	80.0953
6	316228	9345.06	12824.8	15868.4	53.9202	82.2803
7	251189	11545.9	14328.9	18401.7	51.1389	88.9605
8	199526	14053.8	15797.6	21144.1	48.3432	91.1255
9	158489	16696.6	17106.5	23904.2	45.6947	93.5056
10	125893	19812.9	18557.3	27146.4	43.1258	95.1406
11	100000	22970.8	19613.8	30205.3	40.4926	96.8706
12	79432.8	26516.9	20592.7	33573.9	37.8324	102.231
13	63095.7	30329.9	21028.3	36906.5	34.7343	106.846
14	50118.7	34170.4	21235.6	40231.4	31.8594	114.091
15	39810.7	38051.9	21152.7	43536	29.0693	116.816
16	31622.8	41655.8	20879.9	46595.9	26.6222	125.351
17	25118.9	45139.2	20446.5	49554	24.3689	128.941
18	19952.6	48437.2	19867.2	52353.3	22.3017	131.561
19	15848.9	51536.5	19237.5	55009.9	20.4696	139.691
20	12589.3	54470.1	18547.1	57541.2	18.8037	150.197
21	10000	57244	17772.6	59939.5	17.2481	158.517
22	7943.28	59831.1	17066.6	62217.6	15.9206	164.832
23	6309.57	62250	16352.2	64361.9	14.7183	171.417
24	5011.87	64547.9	15701.2	66430.1	13.6716	183.317
25	3981.07	66806.5	15025.9	68475.5	12.6758	185.422
26	3162.28	68822.8	14355.3	70304	11.7821	187.327
27	2511.89	70724.6	13833.9	72064.9	11.0675	189.152
28	1995.26	72499.9	13309	73711.4	10.4021	191.002
29	1584.89	74339.1	12859.5	75443.1	9.81415	192.732
30	1258.93	75993.5	12537.7	77020.8	9.36847	194.482
31	1000	77623.7	12238.9	78582.7	8.96004	196.567
32	794.328	79303.4	11975.8	80202.6	8.58749	198.748
33	630.957	80936.6	11840.2	81798	8.32276	200.773
34	501.187	82526.5	11803.3	83366.3	8.13951	202.568
35	398.107	84128.4	11831.5	84956.3	8.00533	204.368
36	316.228	85742.1	11916	86566.1	7.91202	206.388
37	251.189	87359.2	12065.5	88188.5	7.86361	208.418
38	199.526	89004.1	12275.7	89846.7	7.85284	210.473
39	158.489	90682.3	12559.4	91547.9	7.88525	212.513
40	125.893	92400.5	12912.8	93298.4	7.95548	214.583
41	100	94183.2	13323.5	95120.9	8.05186	216.658
42	79.4328	96020.6	13892.2	97020.3	8.23241	218.663
43	63.0957	97968.6	14432.1	99025.9	8.38017	220.873
44	50.1187	99989.4	15016.3	101111	8.54077	222.968
45	39.8107	102138	15668.8	103333	8.72163	232.878
46	31.6228	104371	16364.1	105646	8.91073	235.118
47	25.1189	106749	17111.7	108112	9.10697	237.403
48	19.9526	109231	17875.2	110684	9.29384	240.178
49	15.8489	111855	18687.8	113405	9.48494	242.818
50	12.5893	114598.329	19534.2	116251	9.67353	245.613
51	10	117493	20407.3	119252	9.8534	248.413
52	7.94328	120445	21418.8	122335	10.0835	251.448
53	6.30957	123557	22316.2	125556	10.2381	254.614
54	5.01187	126840	23257.1	128955	10.3902	257.674
55	3.98107	130304	24242.5	132540.083	10.5391	260.859
56	3.16228	133783	25229	136141	10.6795	264.019
57	2.51189	137443	26334.7	139943	10.8467	267.284
58	1.99526	141124	27458	143771	11.0102	270.804
59	1.58489	145051.701	28709.4	147866	11.1956	274.104
60	1.25893	149029	30018.1	152022	11.3884	277.494
61	1	153199	31450.7	156394	11.6013	283.879
62	0.794328	157479	33275.7	160956	11.9313	287.824
63	0.630957	161940	34967.6	165673	12.1847	291.909
64	0.501187	166553	36863.3	170584	12.4801	296.484
65	0.398107	171412	39030.7	175799	12.8276	301.444
66	0.316228	176410	41437.5	181212	13.2187	306.685
67	0.251189	181512.161	44224.8	186822	13.6931	312.8
68	0.199526	186844	47452.5	192775	14.2501	319.5
69	0.158489	192359	51183.1	199052	14.9001	327.295
70	0.125893	198128	55533.6	205764	15.6577	336.46
71	0.1	204208	60629.3	213018	16.5361	347.15

File: Z_beam4_20241219.txt
Index	Frequency (Hz)	Z' (Ω)	-Z'' (Ω)	Z (Ω)	-Phase (°)	Time (s)
1	1000000	2423.05	6780.41	7200.35	70.3351	53.0448
2	794328.25	3460.05	7893.52	8618.57	66.3302	63.39
3	630957.375	4757.16	9038.36	10213.8	62.2408	68.7951
4	501187	6217.43	10310	12039.7	58.9081	71.5051
5	398107	7846.92	11595.3	14000.9	55.9126	80.0953
6	316228	9730.13	12961.4	16207.2	53.1045	82.2803
7	251189	11892.9	14423	18694	50.4917	88.9605
8	199526	14379.5	15848.7	21399.8	47.7826	91.1255
9	158489	17110.6	17077.2	24174.5	44.9441	93.5056
10	125893	20169.6	18589.2	27429.3	42.6651	95.1406
11	100000	23492.6	19611.1	30602.2	39.8544	96.8706
12	79432.8	26947	20532.4	33878	37.3058	102.231
13	63095.7	30725	20930.7	37176.8	34.2638	106.846
14	50118.7	34509.4	21088.3	40442.7	31.4286	114.091
15	39810.7	38377.1	20989.4	43741.9	28.6754	116.816
16	31622.8	41929.7	20729	46773.8	26.3066	125.351
17	25118.9	45365.3	20309.9	49704.1	24.1179	128.941
18	19952.6	48618.9	19738.5	52472.9	22.0964	131.561
19	15848.9	51678	19127.8	55104.3	20.3113	139.691
20	12589.3	54564.9	18472.6	57607	18.7032	150.197
21	10000	57298.8	17834.5	60010.2	17.289	158.517
22	7943.28	59913.5	17174.7	62326.5	15.9954	164.832
23	6309.57	62389.1	16497.6	64533.5	14.8118	171.417
24	5011.87	64697	15863.3	66613.4	13.7767	183.317
25	3981.07	66940.1	15246.8	68654.5	12.8313	185.422
26	3162.28	69023.2	14704.2	70572.1	12.0261	187.327
27	2511.89	70998.1	14214	72406.9	11.3211	189.152
28	1995.26	72932.5	13732.2	74214	10.6632	191.002
29	1584.89	74799.1	13324.6	75976.6	10.1007	192.732
30	1258.93	76583.6	13004.3	77679.8	9.63722	194.482
31	1000	78334.1	12764.8	79367.4	9.25518	196.567
32	794.328	80080.5	12464.1	81044.7	8.8468	198.748
33	630.957	81808.4	12312.5	82729.7	8.55903	200.773
34	501.187	83485.6	12238.3	84377.9	8.33972	202.568
35	398.107	85164.7	12227	86037.9	8.17005	204.368
36	316.228	86835.7	12271.806	87698.6	8.04389	206.388
37	251.189	88501.3	12382.2	89363.3	7.96456	208.418
38	199.526	90189.8	12557.6	91059.8	7.92662	210.473
39	158.489	91897.9	12799.8	92785	7.92927	212.513
40	125.893	93640.2	13123.3	94555.3	7.9778	214.583
41	100	95453	13515.8	96405.2	8.05929	216.658
42	79.4328	97298.8	14062	98309.7	8.22366	218.663
43	63.0957	99267.8	14583.1	100333	8.35734	220.873
44	50.1187	101300	15155.5	102428	8.50887	222.968
45	39.8107	103466	15798	104665	8.68131	232.878
46	31.6228	105715	16482.4	106992	8.86189	235.118
47	25.1189	108108	17219.8	109471	9.05025	237.403
48	19.9526	110607	17976	112058	9.2311	240.178
49	15.8489	113244	18788.8	114792	9.42039	242.818
50	12.5893	116002.969	19616.8	117650	9.59826	245.613
51	10	118915	20483	120666	9.77324	248.413
52	7.94328	121872	21492	123753	10.0012	251.448
53	6.30957	124997	22376.4	126984	10.1494	254.614
54	5.01187	128293	23297.1	130391	10.2924	257.674
55	3.98107	131756	24263.1	133972	10.4342	260.859
56	3.16228	135267	25242.4	137602.241	10.5705	264.019
57	2.51189	138944	26316.7	141414.438	10.7251	267.284
58	1.99526	142615	27409	145225	10.879	270.804
59	1.58489	146559	28619.3	149327	11.0494	274.104
60	1.25893	150540	29881.3	153477	11.2269	277.494
61	1	154724	31276.8	157854	11.4281	283.879
62	0.794328	159009	33018.6	162401	11.7309	287.824
63	0.630957	163487	34645.1	167117	11.9648	291.909
64	0.501187	168079	36452.8	171987	12.2367	296.484
65	0.398107	172939	38516.6	177176	12.5559	301.444
66	0.316228	177927	40813.4	182547.792	12.9192	306.685
67	0.251189	183021	43468.3	188112	13.3605	312.8
68	0.199526	188341	46536.9	194005	13.8791	319.5
69	0.158489	193838.229	50093.4	200206	14.4899	327.295
70	0.125893	199573	54219.8	206807	15.1992	336.46
71	0.1	205601	59057.9	213914	16.0265	347.15