Folder: Streamlit_cement_impedance/data/plate_beam (part 6)

File: Z_beam7_20241219.txt
Index	Frequency (Hz)	Z' (Ω)	-Z'' (Ω)	Z (Ω)	-Phase (°)	Time (s)
1	1000000	3995.2	9093.67	9932.6	66.2823	53.0448
2	794328.25	5347.93	10516.7	11798.4	63.0458	63.39
3	630957.375	6930.57	12041.1	13893.2	60.0764	68.7951
4	501187	8758.83	13766.6	16316.7	57.5339	71.5051
5	398107	10829.8	15614.4	19002.5	55.2556	80.0953
6	316228	13294.3	17701.1	22137.5	53.0919	82.2803
7	251189	15956.7	19930.9	25531.5	51.3192	88.9605
8	199526	19139.6	22251.7	29350.7	49.2998	91.1255
9	158489	23072.6	24542.4	33684.9	46.7681	93.5056
10	125893	27503.7	27131.5	38633.9	44.6097	95.1406
11	100000	32163.7	29233.6	43463.9	42.2677	96.8706
12	79432.8	37369.2	31286.9	48737.3	39.9373	102.231
13	63095.7	43055.1	32599	54004.1	37.1311	106.846
14	50118.7	49057.3	33691	59512.2	34.48	114.091
15	39810.7	55326.2	34388.6	65142.6	31.8634	116.816
16	31622.8	61275.1	34845.2	70489.9	29.6255	125.351
17	25118.9	67307.9	35025.4	75875.7	27.4914	128.941
18	19952.6	73211.7	34918.4	81112.6	25.4989	131.561
19	15848.9	78882.8	34577.6	86128.4	23.6698	139.691
20	12589.3	84477.7	34067.2	91088.2	21.9627	150.197
21	10000	89915.2	33364.5	95905.8	20.3582	158.517
22	7943.28	95072.3	32701.7	100539	18.9815	164.832
23	6309.57	100107	31606.4	104978.216	17.5222	171.417
24	5011.87	104862	30504.2	109208	16.2197	183.317
25	3981.07	109380	29366.7	113253.949	15.0285	185.422
26	3162.28	113683	28264.8	117144	13.9623	187.327
27	2511.89	117732	27210.4	120835	13.0138	189.152
28	1995.26	121539	26234.6	124338	12.1806	191.002
29	1584.89	125104	25199.6	127617	11.3886	192.732
30	1258.93	128580	24296.8	130855	10.7006	194.482
31	1000	131943	23714	134057	10.1889	196.567
32	794.328	135169	23253.2	137155	9.76106	198.748
33	630.957	138320	22737.6	140177	9.33501	200.773
34	501.187	141248	22377.5	143009	9.00239	202.568
35	398.107	144277	22196	145975	8.74598	204.368
36	316.228	147210	22165.6	148870	8.56276	206.388
37	251.189	150152	22273.5	151795	8.43771	208.418
38	199.526	153171	22509.6	154816	8.36019	210.473
39	158.489	156215	22890.5	157883	8.33636	212.513
40	125.893	159282	23385.2	160989.486	8.35228	214.583
41	100	162493	24005.2	164256	8.4036	216.658
42	79.4328	165778	24947.7	167644	8.55818	218.663
43	63.0957	169248	25796.7	171202.21	8.66631	220.873
44	50.1187	172840	26761.2	174899	8.80135	222.968
45	39.8107	176645	27854.5	178827	8.961	232.878
46	31.6228	180582	29002.7	182896	9.12416	235.118
47	25.1189	184762	30279.6	187227	9.30715	237.403
48	19.9526	189117	31604.9	191739	9.4875	240.178
49	15.8489	193712.143	33033	196508	9.67736	242.818
50	12.5893	198530	34520	201509	9.86386	245.613
51	10	203603	36100.5	206779	10.0545	248.413
52	7.94328	208780	38032.6	212216	10.3241	251.448
53	6.30957	214271	39664.1	217912	10.4874	254.614
54	5.01187	220093	41382.2	223950	10.6485	257.674
55	3.98107	226244	43171.8	230326	10.8033	260.859
56	3.16228	232502	45040.1	236824	10.9635	264.019
57	2.51189	239123	47053.1	243709	11.1321	267.284
58	1.99526	245823	49052.8	250669.031	11.2849	270.804
59	1.58489	253027	51172.5	258150	11.4333	274.104
60	1.25893	260364	53297.2	265763	11.5688	277.494
61	1	268087	55508.7	273773	11.6981	283.879
62	0.794328	275824	58566.6	281973	11.9878	287.824
63	0.630957	283987.971	60724.6	290407.715	12.0697	291.909
64	0.501187	292682	61454.8	299064	11.8582	296.484
65	0.398107	301018	64329.6	307815	12.063	301.444
66	0.316228	309326	67446.3	316593	12.3004	306.685
67	0.251189	317496	71198.4	325380.835	12.6395	312.8
68	0.199526	325766	75759.2	334459	13.0918	319.5
69	0.158489	334138	81315.2	343890	13.6775	327.295
70	0.125893	342826	88123.6	353971	14.4158	336.46
71	0.1	351975	96368.4	364929.482	15.3119	347.15

File: Z_plate1_20241120.txt
Index	Frequency (Hz)	Z' (Ω)	-Z'' (Ω)	Z (Ω)	-Phase (°)	Time (s)
1	1000000	558.514	175.941	585.571	17.4853	53.0448
2	794328.25	591.107	171.81	615.569	16.2069	63.39
3	630957.375	621.064	166.398	642.968	14.9986	68.7951
4	501187	648.68	159.618	668.029	13.8239	71.5051
5	398107	673.698	152.129	690.661	12.7247	80.0953
6	316228	696.805	144.44	711.618	11.7109	82.2803
7	251189	718.079	136.863	731.005	10.7909	88.9605
8	199526	737.74	129.256	748.977	9.93766	91.1255
9	158489	755.883	121.768	765.628	9.1514	93.5056
10	125893	772.739	114.568	781.186	8.43337	95.1406
11	100000	788.468	107.5894	795.774	7.77024	96.8706
12	79432.8	802.985	99.4452	809.12	7.05981	102.231
13	63095.7	816.652	94.2136	822.069	6.58087	106.846
14	50118.7	829.264	89.0857	834.035	6.13162	114.091
15	39810.7	841.086	84.2837	845.298	5.7224	116.816
16	31622.8	851.839	79.933	855.581	5.3607	125.351
17	25118.9	861.864	76.0852	865.216	5.04498	128.941
18	19952.6	871.236	72.8855	874.279	4.78209	131.561
19	15848.9	880.139	70.4415	882.953	4.57589	139.691
20	12589.3	888.822	68.7934	891.481	4.42578	150.197
21	10000	897.286	67.8866	899.85	4.32663	158.517
22	7943.28	905.943	67.7461	908.473	4.2766	164.832
23	6309.57	914.683	68.1409	917.218	4.26048	171.417
24	5011.87	923.509	69.2205	926.1	4.28652	183.317
25	3981.07	932.809	70.8484	935.495	4.34337	185.422
26	3162.28	942.516	72.7134	945.316	4.41153	187.327
27	2511.89	952.633	74.9935	955.58	4.50118	189.152
28	1995.26	963.282	77.4341	966.389	4.59588	191.002
29	1584.89	974.375	80.129	977.664	4.70122	192.732
30	1258.93	985.926	82.8464	989.401	4.80322	194.482
31	1000	997.787	85.7807	1001.47	4.91369	196.567
32	794.328	1010.2	88.4182	1014.06	5.00211	198.748
33	630.957	1022.79	91.4599	1026.87	5.10993	200.773
34	501.187	1035.41	94.7237	1039.74	5.22709	202.568
35	398.107	1048.18	98.2686	1052.77	5.35594	204.368
36	316.228	1060.93	102.393	1065.86	5.51268	206.388
37	251.189	1073.7	107.338	1079.06	5.70889	208.418
38	199.526	1086.49	113.452	1092.4	5.96129	210.473
39	158.489	1099.38	121.156	1106.03	6.28886	212.513
40	125.893	1112.51	130.98	1120.2	6.7147	214.583
41	100	1126.26	143.288	1135.34	7.25048	216.658
42	79.4328	1140.86	159.731	1151.98	7.97015	218.663
43	63.0957	1157.4	178.725	1171.11	8.77828	220.873
44	50.1187	1176.17	201.375	1193.29	9.71555	222.968
45	39.8107	1198.24	228.728	1219.87	10.807	232.878
46	31.6228	1223.29	260.303	1250.68	12.0127	235.118
47	25.1189	1251.95	297.059	1286.71	13.3481	237.403
48	19.9526	1285.39	338.61	1329.24	14.7581	240.178
49	15.8489	1323.17	386.146	1378.36	16.269	242.818
50	12.5893	1366.44	439.903	1435.51	17.8451	245.613
51	10	1417.8	501.051	1503.73	19.4635	248.413
52	7.94328	1473.95	570.376	1580.46	21.155	251.448
53	6.30957	1538.79	645.738	1668.78	22.7649	254.614
54	5.01187	1610.88	730.661	1768.84	24.398	257.674
55	3.98107	1695.67	827.015	1886.6	25.9995	260.859
56	3.16228	1786.64	931.431	2014.86	27.5344	264.019
57	2.51189	1889.95	1049.97	2162.02	29.0546	267.284
58	1.99526	2001.32	1175.57	2321.05	30.4299	270.804
59	1.58489	2129.59	1321	2506.03	31.8115	274.104
60	1.25893	2267.99	1477.5	2706.81	33.0825	277.494
61	1	2420.39	1653.88	2931.49	34.3453	283.879
62	0.794328	2598.89	1837	3182.58	35.2543	287.824
63	0.630957	2772.37	2058.03	3452.75	36.5879	291.909
64	0.501187	2956.66	2308.15	3750.92	37.9779	296.484
65	0.398107	3154.8	2600.44	4088.41	39.498	301.444
66	0.316228	3369.42	2941.98	4473.06	41.1256	306.685
67	0.251189	3593.03	3331.34	4899.77	42.8357	312.8
68	0.199526	3837.96	3794.42	5397	44.6731	319.5
69	0.158489	4114.14	4343.9	5982.95	46.556	327.295
70	0.125893	4429.66	4999.39	6679.51	48.4577	336.46
71	0.1	4790.99	5779.43	7507.02	50.3422	347.15

File: Z_plate1_20241129.txt
Index	Frequency (Hz)	Z' (Ω)	-Z'' (Ω)	Z (Ω)	-Phase (°)	Time (s)
1	1000000	379.092	117.898	435.359	15.7122	53.0448
2	794328.25	403.833	111.565	447.948	14.4218	63.39
3	630957.375	428.049	105.676	460.343	13.2712	68.7951
4	501187	452.22	100.428	473.005	12.2584	71.5051
5	398107	475.958	96.7175	485.685	11.4865	80.0953
6	316228	489.521	93.6553	498.399	10.831	82.2803
7	251189	502.702	90.3901	510.764	10.1933	88.9605
8	199526	515.445	87.5134	522.822	9.63592	91.1255
9	158489	528.044	84.5967	534.777	9.10189	93.5056
10	125893	540.349	81.5371	546.467	8.58103	95.1406
11	100000	552.052	78.8963	557.661	8.13333	96.8706
12	79432.8	563.477	76.6898	568.672	7.75039	102.231
13	63095.7	574.611	74.0225	579.359	7.34053	106.846
14	50118.7	585.189	71.2096	589.506	6.93802	114.091
15	39810.7	595.15	68.2972	599.056	6.54641	116.816
16	31622.8	604.474	65.4697	608.009	6.18153	125.351
17	25118.9	613.287	62.7915	616.493	5.84587	128.941
18	19952.6	621.584	60.3985	624.512	5.54994	131.561
19	15848.9	629.493	58.392	632.196	5.29961	139.691
20	12589.3	637.047	56.8605	639.58	5.10049	150.197
21	10000	644.447	55.7479	646.853	4.94406	158.517
22	7943.28	651.74	55.1157	654.066	4.83384	164.832
23	6309.57	659.011	54.7668	661.283	4.75062	171.417
24	5011.87	666.365	54.8657	668.62	4.70687	183.317
25	3981.07	673.837	55.2363	676.097	4.68621	185.422
26	3162.28	681.443	55.8667	683.729	4.6868	187.327
27	2511.89	689.234	56.6588	691.559	4.69946	189.152
28	1995.26	697.247	57.6061	699.623	4.72302	191.002
29	1584.89	705.43	58.6667	707.865	4.75403	192.732
30	1258.93	713.703	59.9124	716.213	4.7985	194.482
31	1000	722.301	61.2463	724.893	4.8467	196.567
32	794.328	730.906	62.429	733.567	4.88197	198.748
33	630.957	739.654	64.1073	742.427	4.95356	200.773
34	501.187	748.101	65.9429	751.002	5.03743	202.568
35	398.107	756.702	68.1847	759.767	5.14889	204.368
36	316.228	765.308	70.8871	768.584	5.29195	206.388
37	251.189	773.828	74.3349	777.39	5.48706	208.418
38	199.526	782.412	78.7012	786.36	5.74395	210.473
39	158.489	790.992	84.2681	795.468	6.08105	212.513
40	125.893	799.818	91.3783	805.021	6.51772	214.583
41	100	809.067	100.357	815.268	7.07091	216.658
42	79.4328	818.789	112.298	826.454	7.80945	218.663
43	63.0957	829.627	126.061	839.15	8.63992	220.873
44	50.1187	841.676	142.536	853.66	9.61171	222.968
45	39.8107	855.47	162.575	870.781	10.7603	232.878
46	31.6228	870.868	185.95	890.499	12.0529	235.118
47	25.1189	888.813	213.783	914.162	13.5243	237.403
48	19.9526	909.411	245.871	942.062	15.1289	240.178
49	15.8489	932.639	283.526	974.783	16.9095	242.818
50	12.5893	958.937	327.12	1013.2	18.8359	245.613
51	10	989.335	377.917	1059.06	20.9064	248.413
52	7.94328	1022.81	436.696	1112.13	23.1205	251.448
53	6.30957	1061.03	503.292	1174.34	25.3771	254.614
54	5.01187	1105.63	581.184	1249.07	27.7291	257.674
55	3.98107	1157.7	671.845	1338.52	30.1278	260.859
56	3.16228	1215.05	774.518	1440.91	32.5149	264.019
57	2.51189	1281.1	894.381	1562.41	34.9203	267.284
58	1.99526	1354.32	1027.02	1699.69	37.174	270.804
59	1.58489	1441.64	1185.72	1866.62	39.4367	274.104
60	1.25893	1539.59	1364.28	2057.09	41.545	277.494
61	1	1653.74	1573.69	2282.84	43.5791	283.879
62	0.794328	1781.27	1821.88	2547.97	45.6457	287.824
63	0.630957	1931.06	2101.52	2854.02	47.4205	291.909
64	0.501187	2115.31	2414.2	3209.81	48.7753	296.484
65	0.398107	2313.77	2800.28	3632.51	50.4344	301.444
66	0.316228	2543.86	3255.22	4131.3	51.9934	306.685
67	0.251189	2805.72	3775.01	4703.48	53.379	312.8
68	0.199526	3110.05	4385.45	5376.3	54.6567	319.5
69	0.158489	3462.24	5098.71	6163.11	55.8218	327.295
70	0.125893	3871.72	5937.38	7088.21	56.892	336.46
71	0.1	4348.7	6925.91	8177.98	57.8757	347.15

File: Z_plate1_20241205.txt
Index	Frequency (Hz)	Z' (Ω)	-Z'' (Ω)	Z (Ω)	-Phase (°)	Time (s)
1	1000000	525.413	186.96	557.685	19.5873	53.0448
2	794328.25	557.422	181.788	586.316	18.0623	63.39
3	630957.375	587.778	174.535	613.143	16.5383	68.7951
4	501187	615.671	166.082	637.679	15.0966	71.5051
5	398107	640.969	157.489	660.033	13.8044	80.0953
6	316228	664.353	148.618	680.773	12.6097	82.2803
7	251189	685.846	139.912	699.971	11.5301	88.9605
8	199526	705.624	131.402	717.755	10.5488	91.1255
9	158489	724.112	122.912	734.469	9.6337	93.5056
10	125893	741.098	114.981	749.964	8.8191	95.1406
11	100000	756.702	107.385	764.283	8.07704	96.8706
12	79432.8	771.108	100.258	777.598	7.40795	102.231
13	63095.7	784.732	93.7665	790.314	6.81389	106.846
14	50118.7	797.149	87.4466	801.931	6.26027	114.091
15	39810.7	808.487	81.4206	812.577	5.75071	116.816
16	31622.8	818.804	75.8292	822.308	5.29105	125.351
17	25118.9	828.206	70.6887	831.217	4.87846	128.941
18	19952.6	836.782	66.1702	839.394	4.52137	131.561
19	15848.9	844.63	62.3429	846.928	4.22139	139.691
20	12589.3	851.956	59.2538	854.014	3.97853	150.197
21	10000	858.866	57.0102	860.757	3.79763	158.517
22	7943.28	865.49	55.5363	867.27	3.67149	164.832
23	6309.57	872.125	54.7052	873.839	3.58925	171.417
24	5011.87	878.744	54.6412	880.441	3.55813	183.317
25	3981.07	885.582	55.1716	887.299	3.56491	185.422
26	3162.28	892.669	56.1696	894.434	3.60049	187.327
27	2511.89	900.233	57.5413	902.07	3.65727	189.152
28	1995.26	908.075	59.3726	910.014	3.74084	191.002
29	1584.89	916.471	61.2739	918.517	3.82502	192.732
30	1258.93	925.188	63.3831	927.357	3.91912	194.482
31	1000	934.306	65.6304	936.608	4.01815	196.567
32	794.328	943.727	67.7142	946.153	4.10405	198.748
33	630.957	953.324	70.0485	955.894	4.20244	200.773
34	501.187	962.876	72.5306	965.604	4.30778	202.568
35	398.107	972.635	75.2742	975.543	4.42542	204.368
36	316.228	982.35	78.4731	985.479	4.56726	206.388
37	251.189	992.006	82.2996	995.414	4.74255	208.418
38	199.526	1001.63	87.0709	1005.41	4.96817	210.473
39	158.489	1011.21	93.1323	1015.49	5.26209	212.513
40	125.893	1020.91	100.85	1025.87	5.64164	214.583
41	100	1031.04	110.637	1036.96	6.12475	216.658
42	79.4328	1041.59	123.852	1048.93	6.78105	218.663
43	63.0957	1053.35	139.149	1062.5	7.52529	220.873
44	50.1187	1066.45	157.578	1078.03	8.40516	222.968
45	39.8107	1081.58	180.145	1096.48	9.45626	232.878
46	31.6228	1098.69	206.699	1117.97	10.6546	235.118
47	25.1189	1118.98	238.288	1144.07	12.0216	237.403
48	19.9526	1142.75	274.626	1175.28	13.5131	240.178
49	15.8489	1169.98	317.274	1212.23	15.1725	242.818
50	12.5893	1201.22	366.242	1255.82	16.956	245.613
51	10	1237.81	422.968	1308.08	18.8656	248.413
52	7.94328	1278.39	488.456	1368.53	20.9111	251.448
53	6.30957	1325.03	561.521	1439.1	22.9663	254.614
54	5.01187	1379.68	646.203	1523.52	25.0971	257.674
55	3.98107	1443.01	743.888	1623.46	27.2717	260.859
56	3.16228	1512.31	853.323	1736.45	29.4339	264.019
57	2.51189	1591.52	980.363	1869.24	31.6327	267.284
58	1.99526	1678.4	1120.32	2017.96	33.7228	270.804
59	1.58489	1780.3	1286.21	2196.32	35.8468	274.104
60	1.25893	1893.38	1472.19	2398.38	37.8666	277.494
61	1	2023.97	1688.78	2635.98	39.8413	283.879
62	0.794328	2165.06	1946.97	2911.73	41.9639	287.824
63	0.630957	2350.56	2216.14	3230.55	43.314	291.909
64	0.501187	2535.65	2545.58	3592.98	45.112	296.484
65	0.398107	2748.7	2933.77	4020.24	46.8654	301.444
66	0.316228	2987.79	3385.57	4515.41	48.5714	306.685
67	0.251189	3252.92	3901	5079.3	50.1764	312.8
68	0.199526	3552.85	4506.99	5738.97	51.7514	319.5
69	0.158489	3891.85	5217.53	6509.16	53.2801	327.295
70	0.125893	4278.9	6057.05	7415.99	54.7614	336.46
71	0.1	4723.87	7053.09	8488.87	56.1875	347.15

File: Z_plate1_20241212.txt
Index	Frequency (Hz)	Z' (Ω)	-Z'' (Ω)	Z (Ω)	-Phase (°)	Time (s)
1	1000000	473.822	162.054	500.769	18.8814	53.0448
2	794328.25	500.721	154.007	523.87	17.0963	63.39
3	630957.375	524.247	146.982	544.462	15.6618	68.7951
4	501187	546.158	140.054	563.829	14.3828	71.5051
5	398107	566.079	133.561	581.622	13.2756	80.0953
6	316228	584.982	127.598	598.736	12.3048	82.2803
7	251189	602.862	121.809	615.045	11.4229	88.9605
8	199526	619.818	116.519	630.676	10.6467	91.1255
9	158489	636.25	111.834	646.004	9.96906	93.5056
10	125893	651.774	107.061	660.508	9.32815	95.1406
11	100000	666.805	102.654	674.66	8.75194	96.8706
12	79432.8	680.931	99.4791	688.159	8.31171	102.231
13	63095.7	694.94	95.6084	701.486	7.83346	106.846
14	50118.7	708.205	91.724	714.12	7.37964	114.091
15	39810.7	720.833	87.8646	726.169	6.94967	116.816
16	31622.8	732.714	84.2303	737.539	6.55775	125.351
17	25118.9	744.036	80.8027	748.411	6.19806	128.941
18	19952.6	754.782	77.7274	758.774	5.87959	131.561
19	15848.9	764.993	75.0852	768.669	5.60571	139.691
20	12589.3	774.794	72.9162	778.218	5.3763	150.197
21	10000	784.335	71.2937	787.568	5.19374	158.517
22	7943.28	793.599	70.2598	796.703	5.05939	164.832
23	6309.57	802.878	69.5365	805.884	4.94998	171.417
24	5011.87	812.089	69.4499	815.053	4.88805	183.317
25	3981.07	821.424	69.7459	824.379	4.85326	185.422
26	3162.28	830.972	70.385	833.948	4.84151	187.327
27	2511.89	840.687	71.2911	843.705	4.84714	189.152
28	1995.26	850.642	72.5884	853.733	4.87745	191.002
29	1584.89	860.877	73.9713	864.049	4.91111	192.732
30	1258.93	871.428	75.5703	874.698	4.95629	194.482
31	1000	882.075	77.2165	885.448	5.0029	196.567
32	794.328	893.023	78.9731	896.508	5.05372	198.748
33	630.957	904.105	80.9979	907.726	5.1194	200.773
34	501.187	915.16	83.4004	918.952	5.2071	202.568
35	398.107	926.323	86.1027	930.316	5.31045	204.368
36	316.228	937.554	89.261	941.793	5.43853	206.388
37	251.189	948.746	93.1274	953.306	5.60611	208.418
38	199.526	960.01	97.9755	964.997	5.82724	210.473
39	158.489	971.32	104.067	976.879	6.11533	212.513
40	125.893	982.796	111.791	989.134	6.4894	214.583
41	100	994.805	121.44	1002.19	6.95989	216.658
42	79.4328	1007.21	134.366	1016.13	7.59869	218.663
43	63.0957	1020.83	149.276	1031.68	8.31942	220.873
44	50.1187	1035.71	167.069	1049.09	9.16341	222.968
45	39.8107	1052.53	188.863	1069.34	10.1728	232.878
46	31.6228	1071.11	214.434	1092.36	11.3209	235.118
47	25.1189	1092.53	244.913	1119.65	12.6351	237.403
48	19.9526	1117.1	280.194	1151.7	14.0806	240.178
49	15.8489	1144.77	321.631	1189.09	15.6931	242.818
50	12.5893	1175.95	369.539	1232.65	17.4451	245.613
51	10	1211.85	425.582	1284.41	19.3504	248.413
52	7.94328	1251.3	490.537	1344.01	21.4063	251.448
53	6.30957	1296.23	563.853	1413.55	23.5089	254.614
54	5.01187	1348.54	649.442	1496.78	25.7149	257.674
55	3.98107	1409.16	749.819	1596.23	28.0177	260.859
56	3.16228	1475.53	862.277	1709.01	30.3013	264.019
57	2.51189	1551.69	994.259	1842.9	32.6501	267.284
58	1.99526	1635.45	1140.22	1993.69	34.884	270.804
59	1.58489	1734.4	1314.78	2176.42	37.1644	274.104
60	1.25893	1844.93	1511.11	2384.79	39.3197	277.494
61	1	1973.13	1741.07	2631.45	41.4248	283.879
62	0.794328	2112.6	2015.52	2919.83	43.6529	287.824
63	0.630957	2298.08	2306.16	3255.69	45.1006	291.909
64	0.501187	2483.81	2661.91	3640.76	46.9823	296.484
65	0.398107	2700.72	3084.88	4100.05	48.7989	301.444
66	0.316228	2948.83	3581.45	4639.22	50.5332	306.685
67	0.251189	3228.83	4150.91	5258.84	52.122	312.8
68	0.199526	3552.48	4822.49	5989.7	53.6228	319.5
69	0.158489	3924.93	5610.67	6847.24	55.0254	327.295
70	0.125893	4356.6	6540.71	7858.8	56.3334	336.46
71	0.1	4860.15	7642.41	9056.9	57.5459	347.15

File: Z_plate1_20241219.txt
Index	Frequency (Hz)	Z' (Ω)	-Z'' (Ω)	Z (Ω)	-Phase (°)	Time (s)
1	1000000	550.889	179.405	579.366	18.0386	53.0448
2	794328.25	583.243	175.959	609.207	16.7881	63.39
3	630957.375	613.975	169.972	637.068	15.4742	68.7951
4	501187	642.057	162.638	662.335	14.2145	71.5051
5	398107	667.733	154.577	685.392	13.0341	80.0953
6	316228	690.877	146.361	706.21	11.9612	82.2803
7	251189	712.45	138.035	725.698	10.965	88.9605
8	199526	732.097	130.001	743.55	10.0693	91.1255
9	158489	750.259	122.24	760.153	9.25392	93.5056
10	125893	767.058	114.65	775.579	8.50092	95.1406
11	100000	782.513	107.717	789.892	7.83778	96.8706
12	79432.8	796.965	99.7935	803.189	7.13725	102.231
13	63095.7	810.526	94.5943	816.027	6.65672	106.846
14	50118.7	823.102	89.5905	827.963	6.21191	114.091
15	39810.7	834.856	84.955	839.167	5.81042	116.816
16	31622.8	845.771	80.8234	849.624	5.45871	125.351
17	25118.9	856.071	77.0926	859.535	5.14583	128.941
18	19952.6	865.808	73.9391	868.959	4.88116	131.561
19	15848.9	875.053	71.4774	877.967	4.66975	139.691
20	12589.3	883.992	69.7085	886.737	4.50881	150.197
21	10000	892.774	68.4853	895.397	4.3866	158.517
22	7943.28	901.452	68.0746	904.019	4.31859	164.832
23	6309.57	910.233	68.0858	912.776	4.27778	171.417
24	5011.87	919.115	68.7358	921.682	4.27689	183.317
25	3981.07	928.362	69.8879	930.989	4.30516	185.422
26	3162.28	937.879	71.325	940.588	4.34893	187.327
27	2511.89	947.733	73.2521	950.56	4.41971	189.152
28	1995.26	958.046	75.4051	961.009	4.50031	191.002
29	1584.89	968.741	77.6767	971.85	4.58435	192.732
30	1258.93	979.799	80.2166	983.077	4.68039	194.482
31	1000	991.398	82.7606	994.846	4.77191	196.567
32	794.328	1003.13	85.4574	1006.76	4.86932	198.748
33	630.957	1015.31	88.1901	1019.14	4.96425	200.773
34	501.187	1027.25	91.4958	1031.31	5.08984	202.568
35	398.107	1039.5	95.0148	1043.83	5.22259	204.368
36	316.228	1051.76	99.1862	1056.43	5.38733	206.388
37	251.189	1064.06	104.166	1069.14	5.59118	208.418
38	199.526	1076.45	110.351	1082.1	5.85314	210.473
39	158.489	1088.95	118.106	1095.34	6.19	212.513
40	125.893	1101.8	127.891	1109.2	6.62094	214.583
41	100	1115.38	140.081	1124.14	7.15836	216.658
42	79.4328	1129.74	156.284	1140.49	7.87611	218.663
43	63.0957	1145.94	174.737	1159.18	8.66993	220.873
44	50.1187	1164.01	196.624	1180.5	9.58784	222.968
45	39.8107	1184.89	223.056	1205.7	10.6612	232.878
46	31.6228	1208.52	253.567	1234.84	11.8497	235.118
47	25.1189	1236.19	289.363	1269.61	13.1744	237.403
48	19.9526	1268	329.79	1310.18	14.5789	240.178
49	15.8489	1304.44	376.54	1357.69	16.1014	242.818
50	12.5893	1346.09	429.55	1412.96	17.6984	245.613
51	10	1394.24	489.908	1477.8	19.3605	248.413
52	7.94328	1447.26	558.829	1551.41	21.113	251.448
53	6.30957	1508.56	634.208	1636.46	22.8021	254.614
54	5.01187	1579.16	719.489	1735.34	24.4947	257.674
55	3.98107	1659.6	815.931	1849.33	26.1807	260.859
56	3.16228	1747.53	922.024	1975.85	27.8168	264.019
57	2.51189	1847.37	1042.08	2121.02	29.4269	267.284
58	1.99526	1953.94	1170.88	2277.91	30.9318	270.804
59	1.58489	2075.53	1320.03	2459.73	32.4563	274.104
60	1.25893	2205.37	1482.72	2657.46	33.9138	277.494
61	1	2348.16	1668.11	2880.35	35.3897	283.879
62	0.794328	2514.68	1866.24	3131.52	36.5805	287.824
63	0.630957	2676.07	2106.02	3405.39	38.2021	291.909
64	0.501187	2847.18	2379.44	3710.55	39.8862	296.484
65	0.398107	3034.06	2703.72	4063.95	41.705	301.444
66	0.316228	3237.31	3086.64	4472.98	43.6351	306.685
67	0.251189	3455.33	3529.17	4939.07	45.6057	312.8
68	0.199526	3700.62	4056.71	5491.04	47.6282	319.5
69	0.158489	3979.03	4681.78	6144.24	49.639	327.295
70	0.125893	4300.49	5425.13	6922.88	51.5962	336.46
71	0.1	4675.53	6309.86	7853.33	53.462	347.15

File: Z_plate2_20241120.txt
Index	Frequency (Hz)	Z' (Ω)	-Z'' (Ω)	Z (Ω)	-Phase (°)	Time (s)
1	1000000	803.539	257.22	843.704	17.7503	53.0448
2	794328.25	826.961	256.43	865.807	17.228	63.39
3	630957.375	882.723	240.034	914.776	15.2123	68.7951
4	501187	926.894	223.86	953.543	13.5778	71.5051
5	398107	962.196	208.238	984.472	12.2116	80.0953
6	316228	993.224	192.616	1011.73	10.9751	82.2803
7	251189	1020.89	177.74	1036.25	9.87632	88.9605
8	199526	1044.87	163.789	1057.63	8.90893	91.1255
9	158489	1066.77	150.311	1077.3	8.02037	93.5056
10	125893	1085.76	138.418	1094.55	7.26515	95.1406
11	100000	1103.13	127.755	1110.51	6.60606	96.8706
12	79432.8	1118.48	116.014	1124.48	5.92183	102.231
13	63095.7	1133.17	109.028	1138.41	5.49576	106.846
14	50118.7	1146.64	102.952	1151.25	5.1306	114.091
15	39810.7	1159.11	97.8804	1163.23	4.82688	116.816
16	31622.8	1170.95	93.8664	1174.7	4.58319	125.351
17	25118.9	1182.44	90.9583	1185.94	4.39875	128.941
18	19952.6	1193.77	88.8039	1197.07	4.25435	131.561
19	15848.9	1204.99	87.627	1208.17	4.15925	139.691
20	12589.3	1216.36	87.1196	1219.47	4.09673	150.197
21	10000	1227.8	87.2042	1230.89	4.06261	158.517
22	7943.28	1239.99	87.9492	1243.11	4.05703	164.832
23	6309.57	1252.58	88.804	1255.72	4.05532	171.417
24	5011.87	1265.66	90.0443	1268.86	4.06941	183.317
25	3981.07	1278.91	91.1535	1282.154	4.07683	185.422
26	3162.28	1292.81	92.0158	1296.08	4.07118	187.327
27	2511.89	1307.25	92.7874	1310.54	4.05998	189.152
28	1995.26	1322.04	92.9307	1325.3	4.0209	191.002
29	1584.89	1336.63	92.5773	1339.83	3.96207	192.732
30	1258.93	1351.41	91.6933	1354.52	3.88158	194.482
31	1000	1366.01	90.0601	1368.98	3.772	196.567
32	794.328	1379.93	87.8828	1382.72	3.64405	198.748
33	630.957	1393.54	84.8879	1396.12	3.48589	200.773
34	501.187	1405.82	81.4455	1408.17	3.31571	202.568
35	398.107	1417.09	77.976	1419.23	3.14956	204.368
36	316.228	1426.66	74.8482	1428.62	3.00321	206.388
37	251.189	1435.42	72.3154	1437.24	2.88408	208.418
38	199.526	1441.95	71.1035	1443.71	2.823	210.473
39	158.489	1447.58	71.7241	1449.36	2.83655	212.513
40	125.893	1452.59	74.6881	1454.51	2.94339	214.583
41	100	1455.29	80.5892	1457.52	3.16962	216.658
42	79.4328	1460.7	91.8077	1463.58	3.59643	218.663
43	63.0957	1466.23	105.119	1469.99	4.10072	220.873
44	50.1187	1473.12	122.334	1478.2	4.74718	222.968
45	39.8107	1480.58	143.257	1487.49	5.5266	232.878
46	31.6228	1491.66	169.528	1501.26	6.4839	235.118
47	25.1189	1510.2	202.881	1523.77	7.65135	237.403
48	19.9526	1530.21	239.679	1548.86	8.90203	240.178
49	15.8489	1552.28	282.328	1577.75	10.3082	242.818
50	12.5893	1580.63	332.156	1615.15	11.8675	245.613
51	10	1613.92	389.064	1660.15	13.5536	248.413
52	7.94328	1652.54	455.853	1714.26	15.4215	251.448
53	6.30957	1697.58	529.259	1778.17	17.3161	254.614
54	5.01187	1751.74	612.966	1855.89	19.2859	257.674
55	3.98107	1816.05	708.296	1949.29	21.3068	260.859
56	3.16228	1886.93	814.463	2055.2	23.3466	264.019
57	2.51189	1969.6	936.628	2180.96	25.4331	267.284
58	1.99526	2060.14	1068.24	2320.63	27.4079	270.804
59	1.58489	2167.12	1221.64	2487.74	29.4107	274.104
60	1.25893	2284.69	1389.74	2674.18	31.3115	277.494
61	1	2418.09	1581.71	2889.46	33.1893	283.879
62	0.794328	2579.48	1785.18	3136.97	34.686	287.824
63	0.630957	2739.83	2032.35	3411.33	36.5672	291.909
64	0.501187	2914.55	2311.8	3720.08	38.4212	296.484
65	0.398107	3110.31	2639.45	4079.3	40.3184	301.444
66	0.316228	3324.22	3017.25	4489.35	42.2287	306.685
67	0.251189	3555.59	3449.04	4953.6	44.1285	312.8
68	0.199526	3812.08	3957.06	5494.57	46.069	319.5
69	0.158489	4104.33	4551.51	6128.76	47.9574	327.295
70	0.125893	4431.24	5249.25	6869.54	49.83	336.46
71	0.1	4807.42	6071.01	7743.93	51.6255	347.15