Folder: Streamlit_cement_impedance/data/plate_beam (part 4)

File: Z_beam5_20241120.txt
Index	Frequency (Hz)	Z' (Ω)	-Z'' (Ω)	Z (Ω)	-Phase (°)	Time (s)
1	1000000	2356.82	5890.86	6344.82	68.1946	53.0448
2	794328.25	3314.04	6767.16	7535.07	63.9079	63.39
3	630957.375	4395.08	7684.22	8852.34	60.2321	68.7951
4	501187	5664.8	8667.28	10354.3	56.832	71.5051
5	398107	7055.43	9664.51	11965.9	53.8692	80.0953
6	316228	8658.7	10722	13781.6	51.0768	82.2803
7	251189	10461.6	11809.5	15776.8	48.4634	88.9605
8	199526	12513	12810.4	17907.6	45.6729	91.1255
9	158489	14820.7	13786	20241.2	42.9284	93.5056
10	125893	17337.4	14575.2	22650	40.053	95.1406
11	100000	19773.3	15351.3	25032.9	37.8246	96.8706
12	79432.8	22532.9	15957.5	27611.1	35.3056	102.231
13	63095.7	25390.5	16139.4	30085.9	32.442	106.846
14	50118.7	28232.6	16171.5	32536.1	29.8039	114.091
15	39810.7	31108.2	16015.5	34988.8	27.2409	116.816
16	31622.8	33762.4	15769.9	37263.8	25.0365	125.351
17	25118.9	36337.1	15432.2	39478.3	23.0107	128.941
18	19952.6	38780.9	14983.5	41574.8	21.1247	131.561
19	15848.9	41109.8	14499.6	43591.9	19.4279	139.691
20	12589.3	43327.8	13968.9	45523.9	17.8693	150.197
21	10000	45417.7	13411.8	47356.6	16.4518	158.517
22	7943.28	47392.2	12831.9	49098.6	15.1501	164.832
23	6309.57	49265.1	12203.1	50754	13.9123	171.417
24	5011.87	51008.4	11620	52315.3	12.8333	183.317
25	3981.07	52608.1	11018	53749.5	11.8288	185.422
26	3162.28	54096.9	10510.9	55108.5	10.9955	187.327
27	2511.89	55521.7	9983.52	56412.1	10.1936	189.152
28	1995.26	56807.4	9629.02	57617.7	9.62037	191.002
29	1584.89	58044.4	9146.4	58760.6	8.9548	192.732
30	1258.93	59166.4	8818.52	59820	8.4773	194.482
31	1000	60301	8590.04	60909.7	8.1074	196.567
32	794.328	61360.9	8446.42	61939.5	7.83761	198.748
33	630.957	62530.1	8307.53	63079.6	7.56779	200.773
34	501.187	63594.9	8226.1	64124.7	7.37038	202.568
35	398.107	64633.7	8228.85	65155.4	7.25559	204.368
36	316.228	65707.9	8274.21	66226.9	7.17714	206.388
37	251.189	66789.3	8409.68	67316.7	7.17655	208.418
38	199.526	67881.8	8587.21	68422.8	7.20975	210.473
39	158.489	69021.7	8847.8	69586.5	7.30483	212.513
40	125.893	70196.1	9155.81	70790.7	7.43125	214.583
41	100	71434.1	9552.62	72070	7.61677	216.658
42	79.4328	72732.4	10059.3	73424.7	7.87439	218.663
43	63.0957	74134.7	10517.3	74877	8.07454	220.873
44	50.1187	75583.2	11064.8	76388.8	8.32847	222.968
45	39.8107	77141.6	11673.2	78019.8	8.60484	232.878
46	31.6228	78773.1	12329.7	79732.2	8.89582	235.118
47	25.1189	80533.2	13040.5	81582.2	9.19792	237.403
48	19.9526	82387.8	13790	83533.9	9.50206	240.178
49	15.8489	84369.4	14601.7	85623.6	9.81881	242.818
50	12.5893	86464.8	15459	87835.9	10.1368	245.613
51	10	88711.1	16371.9	90209.2	10.4564	248.413
52	7.94328	91026.9	17395.7	92674.2	10.8191	251.448
53	6.30957	93496	18404	95290.1	11.1359	254.614
54	5.01187	96142.1	19479.3	98095.6	11.4536	257.674
55	3.98107	98984.9	20634.1	101113	11.7751	260.859
56	3.16228	101890.286	21835.4	104204	12.0957	264.019
57	2.51189	105003	23175.9	107530	12.4466	267.284
58	1.99526	108151	24563.2	110906	12.7959	270.804
59	1.58489	111590	26112.5	114605	13.1704	274.104
60	1.25893	115135	27749.6	118432	13.5508	277.494
61	1	118932	29553.9	122549	13.955	283.879
62	0.794328	122943	31584.6	126935	14.408	287.824
63	0.630957	127134	33732.9	131533	14.8601	291.909
64	0.501187	131546	36089.6	136407	15.3416	296.484
65	0.398107	136266	38738	141666	15.8695	301.444
66	0.316228	141248	41624.4	147253	16.4197	306.685
67	0.251189	146428	44864.7	153147	17.0348	312.8
68	0.199526	151994	48514.3	159549	17.7023	319.5
69	0.158489	157810	52561.6	166332.811	18.4214	327.295
70	0.125893	164036	57124.5	173698	19.2003	336.46
71	0.1	170717	62270.8	181720	20.0399	347.15

File: Z_beam5_20241129.txt
Index	Frequency (Hz)	Z' (Ω)	-Z'' (Ω)	Z (Ω)	-Phase (°)	Time (s)
1	1000000	2423.61	6062.42	6528.92	68.2097	53.0448
2	794328.25	3415.42	7005.53	7793.75	64.0093	63.39
3	630957.375	4543.05	7948.58	9155.29	60.2497	68.7951
4	501187	5862.89	8986.93	10730.3	56.8804	71.5051
5	398107	7319.37	10050	12432.8	53.9343	80.0953
6	316228	8931.11	11094.5	14242.6	51.1658	82.2803
7	251189	10810.3	12247.6	16336.085	48.5669	88.9605
8	199526	12879.9	13296.2	18511.6	45.9113	91.1255
9	158489	15231.3	14369.6	20939.9	43.3325	93.5056
10	125893	17877.3	15303	23532.5	40.5637	95.1406
11	100000	20704	15994.4	26162.6	37.6871	96.8706
12	79432.8	23381.6	16639.5	28697.9	35.4375	102.231
13	63095.7	26375.8	16847.4	31297.3	32.5682	106.846
14	50118.7	29362.1	16872.7	33864.7	29.8834	114.091
15	39810.7	32367.1	16689.2	36416.5	27.2766	116.816
16	31622.8	35126.5	16419.9	38774.8	25.0538	125.351
17	25118.9	37803.6	16053.4	41071	23.0086	128.941
18	19952.6	40343.3	15602.8	43255.4	21.144	131.561
19	15848.9	42773.6	15081.3	45354.4	19.4219	139.691
20	12589.3	45065.3	14554.3	47357.3	17.8984	150.197
21	10000	47222.8	13975.5	49247.4	16.4861	158.517
22	7943.28	49308.3	13385.7	51092.9	15.188	164.832
23	6309.57	51282.3	12753.8	52844.4	13.966	171.417
24	5011.87	53064.1	12151.8	54437.7	12.8984	183.317
25	3981.07	54736.2	11552.5	55942	11.9178	185.422
26	3162.28	56322.5	10995.8	57385.8	11.0469	187.327
27	2511.89	57770.5	10515.4	58719.7	10.3161	189.152
28	1995.26	59192.3	9961.87	60024.7	9.55317	191.002
29	1584.89	60463.4	9561.03	61214.7	8.98573	192.732
30	1258.93	61687.7	9287.21	62382.9	8.5617	194.482
31	1000	62948.1	9011.91	63590	8.14734	196.567
32	794.328	64027.9	8850.18	64636.7	7.86977	198.748
33	630.957	65224.1	8671.86	65798	7.57334	200.773
34	501.187	66331.6	8607.3	66887.7	7.39349	202.568
35	398.107	67440.4	8597.61	67986.2	7.26513	204.368
36	316.228	68552.1	8658.08	69096.7	7.19831	206.388
37	251.189	69684.8	8777.91	70235.5	7.1795	208.418
38	199.526	70821.6	8965.06	71386.8	7.2145	210.473
39	158.489	72025.9	9214.17	72612.8	7.29017	212.513
40	125.893	73258.9	9486.2	73870.5	7.3781	214.583
41	100	74543.3	9888.17	75196.3	7.55617	216.658
42	79.4328	75886.1	10405.7	76596.2	7.80782	218.663
43	63.0957	77320.4	10916.8	78087.3	8.03644	220.873
44	50.1187	78838.2	11466.5	79667.7	8.27524	222.968
45	39.8107	80439.6	12109.2	81345.9	8.56088	232.878
46	31.6228	82131.7	12785.8	83120.9	8.84849	235.118
47	25.1189	83955.3	13522.8	85037.4	9.1501	237.403
48	19.9526	85876.1	14301.4	87058.8	9.45498	240.178
49	15.8489	87926.8	15139.4	89220.6	9.76948	242.818
50	12.5893	90102.1	16033.5	91517.6	10.0901	245.613
51	10	92424.7	16979.4	93971.4	10.4097	248.413
52	7.94328	94831.4	18053.7	96534.6	10.7788	251.448
53	6.30957	97391.1	19095.4	99245.4	11.0932	254.614
54	5.01187	100147.596	20210.3	102167	11.4094	257.674
55	3.98107	103092	21409.1	105292	11.7318	260.859
56	3.16228	106107	22652.1	108498	12.0508	264.019
57	2.51189	109337	24036.7	111948	12.3987	267.284
58	1.99526	112615	25470.8	115459	12.7445	270.804
59	1.58489	116188	27069.4	119300	13.1148	274.104
60	1.25893	119872	28763	123275	13.4929	277.494
61	1	123811	30627.8	127543	13.8946	283.879
62	0.794328	127966	32740.6	132088	14.3515	287.824
63	0.630957	132325	34944.4	136861.467	14.7929	291.909
64	0.501187	136885	37362.5	141892	15.2669	296.484
65	0.398107	141822	40087.2	147378.378	15.7834	301.444
66	0.316228	146982	43047.2	153156	16.3239	306.685
67	0.251189	152365	46365.3	159263	16.9252	312.8
68	0.199526	158115	50093.1	165861	17.5789	319.5
69	0.158489	164180	54244.5	172909	18.2834	327.295
70	0.125893	170672	58916.7	180555	19.0448	336.46
71	0.1	177577	64167.9	188815	19.8674	347.15

File: Z_beam5_20241205.txt
Index	Frequency (Hz)	Z' (Ω)	-Z'' (Ω)	Z (Ω)	-Phase (°)	Time (s)
1	1000000	2027.53	5798.31	6142.58	70.7265	53.0448
2	794328.25	2929.38	6738.12	7347.35	66.5032	63.39
3	630957.375	3957.32	7729.4	8683.55	62.8883	68.7951
4	501187	5187	8790.32	10206.6	59.456	71.5051
5	398107	6556.51	9949.91	11915.9	56.617	80.0953
6	316228	8139.03	11116.5	13777.5	53.79	82.2803
7	251189	10003.5	12352.5	15895.1	50.9981	88.9605
8	199526	12076.3	13599	18187.1	48.3938	91.1255
9	158489	14366.8	14845.9	20659.3	45.9396	93.5056
10	125893	17062	16004.7	23393.6	43.1688	95.1406
11	100000	19868.4	17099.2	26213.314	40.716	96.8706
12	79432.8	22763	17998	29018.6	38.3324	102.231
13	63095.7	26026	18491.3	31926.2	35.3935	106.846
14	50118.7	29323.9	18805.9	34836.1	32.6728	114.091
15	39810.7	32732.1	18895.8	37794.7	29.9972	116.816
16	31622.8	35956.1	18837.8	40592	27.6505	125.351
17	25118.9	39125.7	18612.1	43327	25.4404	128.941
18	19952.6	42179.7	18230.7	45950.9	23.3747	131.561
19	15848.9	45120.4	17742.7	48483.6	21.4663	139.691
20	12589.3	47912.6	17162.2	50893.6	19.7074	150.197
21	10000	50552.2	16520.1	53183	18.097	158.517
22	7943.28	53045.4	15794.5	55346.9	16.5811	164.832
23	6309.57	55424.1	15019.8	57423.2	15.1629	171.417
24	5011.87	57563.1	14252.8	59301.3	13.9069	183.317
25	3981.07	59587.8	13480.8	61093.7	12.7477	185.422
26	3162.28	61382.2	12737.5	62689.8	11.7231	187.327
27	2511.89	63104.9	12084.2	64251.5	10.8405	189.152
28	1995.26	64758.4	11466.2	65765.7	10.0408	191.002
29	1584.89	66094.1	10956.8	66996.1	9.41263	192.732
30	1258.93	67517.8	10381.5	68311.2	8.74129	194.482
31	1000	68858.5	10081.3	69592.5	8.3293	196.567
32	794.328	70206.3	9886.73	70899	8.01591	198.748
33	630.957	71334.9	9705.91	71992.1	7.74816	200.773
34	501.187	72628.6	9555.29	73254.5	7.495	202.568
35	398.107	73878.1	9399.88	74473.7	7.25107	204.368
36	316.228	75103.5	9445.53	75695.1	7.16828	206.388
37	251.189	76345.5	9569.13	76942.9	7.14418	208.418
38	199.526	77604.4	9770.9	78217.1	7.17615	210.473
39	158.489	78899.7	10036.6	79535.5	7.24947	212.513
40	125.893	80234.7	10384.8	80904	7.37482	214.583
41	100	81628.8	10792.8	82339.2	7.53183	216.658
42	79.4328	83086.5	11338.1	83856.5	7.77066	218.663
43	63.0957	84641.8	11876.8	85471	7.98747	220.873
44	50.1187	86272	12475.2	87169.3	8.22814	222.968
45	39.8107	88021.1	13143	88996.9	8.49249	232.878
46	31.6228	89853.7	13865.9	90917.2	8.7725	235.118
47	25.1189	91828.3	14658.1	92990.8	9.06933	237.403
48	19.9526	93909.6	15494.8	95179.4	9.36924	240.178
49	15.8489	96141.8	16393.3	97529.4	9.67656	242.818
50	12.5893	98485.8	17356.1	100003	9.99456	245.613
51	10	100992	18383.7	102652	10.3167	248.413
52	7.94328	103607	19537.6	105433	10.6791	251.448
53	6.30957	106384	20656.3	108370	10.9883	254.614
54	5.01187	109362	21853.2	111524	11.3002	257.674
55	3.98107	112552	23148.8	114908	11.622	260.859
56	3.16228	115808	24491.8	118370	11.9413	264.019
57	2.51189	119301	25978.5	122097	12.2847	267.284
58	1.99526	122841	27543.9	125892	12.638	270.804
59	1.58489	126710	29272.9	130048	13.0084	274.104
60	1.25893	130685	31100.5	134335	13.3862	277.494
61	1	134942	33113.9	138946	13.7875	283.879
62	0.794328	139431	35444	143866	14.2627	287.824
63	0.630957	144162	37831.6	149044	14.7042	291.909
64	0.501187	149088	40435.2	154474	15.1746	296.484
65	0.398107	154423	43372.2	160399	15.6882	301.444
66	0.316228	160030	46548.6	166662	16.2184	306.685
67	0.251189	165858	50136.9	173271	16.8194	312.8
68	0.199526	172075.035	54141.6	180392	17.4656	319.5
69	0.158489	178643	58623.7	188016	18.1679	327.295
70	0.125893	185641	63640.8	196246	18.9226	336.46
71	0.1	193092	69291.4	205149	19.7406	347.15

File: Z_beam5_20241212.txt
Index	Frequency (Hz)	Z' (Ω)	-Z'' (Ω)	Z (Ω)	-Phase (°)	Time (s)
1	1000000	2186.54	6279.79	6649.57	70.8026	53.0448
2	794328.25	3130.21	7337.91	7977.66	66.8978	63.39
3	630957.375	4238.39	8505.82	9503.31	63.5133	68.7951
4	501187	5554.85	9715.07	11191	60.2401	71.5051
5	398107	7040.91	11017.5	13075.2	57.4187	80.0953
6	316228	8841.49	12411.5	15238.7	54.5353	82.2803
7	251189	10854.6	13840.8	17589.5	51.8946	88.9605
8	199526	13165.8	15368.5	20236.8	49.4141	91.1255
9	158489	15770.9	16780.2	23028.2	46.7759	93.5056
10	125893	18871.2	18223.3	26233.7	43.9994	95.1406
11	100000	22274.9	19426.1	29555.8	41.092	96.8706
12	79432.8	25483.6	20513.9	32714.4	38.8335	102.231
13	63095.7	29271.7	21082	36073.3	35.762	106.846
14	50118.7	33118.2	21404.6	39433.2	32.8749	114.091
15	39810.7	37033.8	21445.7	42795.1	30.0745	116.816
16	31622.8	40704.4	21306.6	45943.7	27.6297	125.351
17	25118.9	44297.4	20968.9	49009.7	25.3313	128.941
18	19952.6	47715	20472.9	51921.7	23.2225	131.561
19	15848.9	50976.1	19894.2	54720.6	21.319	139.691
20	12589.3	54058	19258	57385.9	19.6083	150.197
21	10000	57013.9	18479.5	59933.9	17.9587	158.517
22	7943.28	59786.7	17750	62365.9	16.5355	164.832
23	6309.57	62432.1	16832.4	64661.4	15.0888	171.417
24	5011.87	64849.4	16034.9	66802.4	13.8886	183.317
25	3981.07	67122.8	15231	68829.2	12.7847	185.422
26	3162.28	69215.4	14433.7	70704.4	11.7793	187.327
27	2511.89	71130.8	13737.09	72445.1	10.9306	189.152
28	1995.26	72954	13029.4	74108.4	10.1262	191.002
29	1584.89	74661.2	12441.3	75690.7	9.46068	192.732
30	1258.93	76264.3	11914.8	77189.4	8.87955	194.482
31	1000	77772.6	11525.9	78622	8.42989	196.567
32	794.328	79279.7	11079.9	80050.2	7.95594	198.748
33	630.957	80694.6	10830.1	81418.1	7.64407	200.773
34	501.187	82083.6	10690.1	82776.8	7.42014	202.568
35	398.107	83478.2	10646.7	84154.4	7.26818	204.368
36	316.228	84866.9	10678.2	85536	7.17143	206.388
37	251.189	86268	10794.4	86940.7	7.13214	208.418
38	199.526	87698.3	10993.1	88384.6	7.14483	210.473
39	158.489	89153.8	11260.9	89862.1	7.19884	212.513
40	125.893	90639.8	11605.1	91379.7	7.29619	214.583
41	100	92210.1	12035.1	92992.2	7.4361	216.658
42	79.4328	93821.8	12633	94668.5	7.6687	218.663
43	63.0957	95550.1	13214.6	96459.6	7.87409	220.873
44	50.1187	97353.9	13858.2	98335.3	8.10154	222.968
45	39.8107	99290.2	14588.1	100356	8.35831	232.878
46	31.6228	101319	15378.8	102479	8.63087	235.118
47	25.1189	103504	16249.4	104772	8.92219	237.403
48	19.9526	105806	17169.9	107190	9.2174	240.178
49	15.8489	108268	18175.2	109783	9.52951	242.818
50	12.5893	110871	19239.5	112528	9.84454	245.613
51	10	113663	20370.5	115474	10.1606	248.413
52	7.94328	116554	21677.2	118552	10.5358	251.448
53	6.30957	119623	22913.6	121797	10.8436	254.614
54	5.01187	122933	24241.3	125300	11.1552	257.674
55	3.98107	126466	25668.7	129044.766	11.4734	260.859
56	3.16228	130091	27150.1	132894	11.7885	264.019
57	2.51189	133974	28795	137034	12.13	267.284
58	1.99526	137908	30484.1	141237	12.4646	270.804
59	1.58489	142207	32379.3	145846	12.8271	274.104
60	1.25893	146624.643	34380.3	150601	13.1962	277.494
61	1	151350	36579.6	155708	13.5872	283.879
62	0.794328	156286	39217.5	161131	14.0866	287.824
63	0.630957	161531	41778.9	166846	14.5014	291.909
64	0.501187	167033	44585.4	172881	14.9453	296.484
65	0.398107	172983	47750.7	179453	15.4318	301.444
66	0.316228	179176	51161.1	186337	15.9359	306.685
67	0.251189	185666	54991.1	193639	16.4984	312.8
68	0.199526	192569.588	59269.9	201484	17.1075	319.5
69	0.158489	199873	64040.5	209882	17.7658	327.295
70	0.125893	207591	69377.3	218877	18.4797	336.46
71	0.1	215844	75394.1	228633	19.2542	347.15

File: Z_beam5_20241219.txt
Index	Frequency (Hz)	Z' (Ω)	-Z'' (Ω)	Z (Ω)	-Phase (°)	Time (s)
1	1000000	2416.27	6445.89	6883.89	69.4513	53.0448
2	794328.25	3405.86	7463.99	8204.33	65.4725	63.39
3	630957.375	4569.3	8575.04	9716.47	61.9486	68.7951
4	501187	5890.47	9786.33	11422.3	58.9559	71.5051
5	398107	7491.77	11013.8	13320.3	55.7759	80.0953
6	316228	9241.56	12352.8	15427.2	53.1985	82.2803
7	251189	11251	13763.9	17777.2	50.7365	88.9605
8	199526	13573.9	15208.7	20385.1	48.2509	91.1255
9	158489	16259.8	16590.8	23230	45.5773	93.5056
10	125893	19116.4	17961.4	26230.7	43.2157	95.1406
11	100000	22462.6	19059.5	29459	40.3146	96.8706
12	79432.8	25688.2	20140.6	32642.4	38.0979	102.231
13	63095.7	29400.3	20657.1	35931.8	35.0925	106.846
14	50118.7	33123.3	20963.4	39199.8	32.3293	114.091
15	39810.7	36967	20981.4	42506.2	29.5779	116.816
16	31622.8	40523.7	20843.6	45570.1	27.2193	125.351
17	25118.9	44017.5	20527.5	48568.6	25.0019	128.941
18	19952.6	47366.6	20064.9	51441.2	22.9579	131.561
19	15848.9	50556.2	19507.2	54189.1	21.0992	139.691
20	12589.3	53579.3	18881.7	56808.9	19.4128	150.197
21	10000	56456.9	18215.9	59322.9	17.8823	158.517
22	7943.28	59201.1	17453.2	61720.2	16.4262	164.832
23	6309.57	61760.5	16645.3	63964.3	15.0836	171.417
24	5011.87	64176.7	15904.8	66118.1	13.9191	183.317
25	3981.07	66426.1	15082.1	68116.8	12.7922	185.422
26	3162.28	68586.3	14375.2	70076.6	11.8374	187.327
27	2511.89	70429.3	13658.7	71741.5	10.9754	189.152
28	1995.26	72262.5	13028.5	73427.6	10.2203	191.002
29	1584.89	73974.8	12469.5	75018.4	9.56808	192.732
30	1258.93	75590.1	12010.604	76538.351	9.02832	194.482
31	1000	77136	11627.5	78007.4	8.57223	196.567
32	794.328	78669.5	11148.2	79455.5	8.06562	198.748
33	630.957	80114.2	10869.4	80848.2	7.72634	200.773
34	501.187	81548.5	10715.5	82249.5	7.48581	202.568
35	398.107	82946.4	10650.4	83627.3	7.31678	204.368
36	316.228	84336.1	10667.3	85008.1	7.20882	206.388
37	251.189	85743.9	10765.4	86417.1	7.15619	208.418
38	199.526	87150.9	10939.8	87834.8	7.15477	210.473
39	158.489	88585.1	11193.2	89289.4	7.20147	212.513
40	125.893	90078.2	11541.7	90814.6	7.3015	214.583
41	100	91628.8	11974.1	92407.9	7.44525	216.658
42	79.4328	93235.5	12554.6	94077	7.669	218.663
43	63.0957	94948.6	13124.4	95851.4	7.86994	220.873
44	50.1187	96741.9	13761.2	97715.7	8.09581	222.968
45	39.8107	98662.2	14486.4	99720	8.35295	232.878
46	31.6228	100676	15270.8	101828	8.625	235.118
47	25.1189	102845	16135.2	104103	8.91636	237.403
48	19.9526	105126	17050.9	106499	9.21287	240.178
49	15.8489	107567	18040.7	109069	9.52078	242.818
50	12.5893	110156	19101.5	111800	9.83746	245.613
51	10	112924	20222	114721	10.1527	248.413
52	7.94328	115775	21519	117757	10.5294	251.448
53	6.30957	118827	22756.2	120987	10.8413	254.614
54	5.01187	122117	24071.8	124467	11.1512	257.674
55	3.98107	125624	25488.1	128184	11.4691	260.859
56	3.16228	129239	26960.2	132021	11.7833	264.019
57	2.51189	133095	28587.9	136131	12.1225	267.284
58	1.99526	137005.98	30269.7	140310	12.4586	270.804
59	1.58489	141275	32157.1	144889	12.8232	274.104
60	1.25893	145663.234	34128.2	149607.866	13.1863	277.494
61	1	150362	36309.4	154684	13.5759	283.879
62	0.794328	155273	38896.2	160071	14.0633	287.824
63	0.630957	160487	41443.2	165751	14.4794	291.909
64	0.501187	165952	44208.7	171740	14.9168	296.484
65	0.398107	171846	47326	178244	15.3974	301.444
66	0.316228	178023.888	50707.3	185105	15.8988	306.685
67	0.251189	184467.831	54476.5	192343.619	16.4528	312.8
68	0.199526	191327	58697.9	200128	17.0557	319.5
69	0.158489	198565	63385.3	208437	17.7039	327.295
70	0.125893	206262	68632.2	217380	18.4045	336.46
71	0.1	214458	74547.5	227045	19.1679	347.15

File: Z_beam6_20241120.txt
Index	Frequency (Hz)	Z' (Ω)	-Z'' (Ω)	Z (Ω)	-Phase (°)	Time (s)
1	1000000	2395.77	5349.16	5861.17	65.8734	53.0448
2	794328.25	3270.57	6118.59	6937.85	61.8741	63.39
3	630957.375	4358.87	6857.16	8125.3	57.5572	68.7951
4	501187	5435.75	7663.64	9395.67	54.6523	71.5051
5	398107	6720.86	8435.06	10785.2	51.453	80.0953
6	316228	8182.79	9261.31	12358.4	48.5379	82.2803
7	251189	9878.21	10034.8	14081.1	45.4505	88.9605
8	199526	11567.4	10736.4	15782.1	42.8661	91.1255
9	158489	13625	11415	17774.8	39.9562	93.5056
10	125893	15687.8	11833.9	19650.7	37.0286	95.1406
11	100000	17873.6	12262.2	21675.5	34.4521	96.8706
12	79432.8	19961.7	12415.1	23507.6	31.8795	102.231
13	63095.7	22212.4	12258	25370.2	28.8923	106.846
14	50118.7	24387.8	11948.1	27157.3	26.1012	114.091
15	39810.7	26509.6	11465	28882.6	23.3877	116.816
16	31622.8	28366.9	10926.9	30398.653	21.0666	125.351
17	25118.9	30084.7	10310.3	31802.4	18.9171	128.941
18	19952.6	31622.6	9644.99	33060.8	16.9619	131.561
19	15848.9	32992	9014.19	34201.3	15.2816	139.691
20	12589.3	34205.2	8397.58	35220.9	13.7937	150.197
21	10000	35285.5	7850.6	36148.3	12.5433	158.517
22	7943.28	36259.8	7379.16	37003	11.5031	164.832
23	6309.57	37171.9	6976.97	37821	10.6304	171.417
24	5011.87	37981.7	6683.47	38565.2	9.97991	183.317
25	3981.07	38783.6	6478.18	39320.9	9.4828	185.422
26	3162.28	39568.1	6322.34	40070	9.07819	187.327
27	2511.89	40344.1	6272.74	40828.8	8.83764	189.152
28	1995.26	41165.3	6222.57	41632.9	8.59579	191.002
29	1584.89	41988.5	6244.79	42450.3	8.45939	192.732
30	1258.93	42864.2	6300.18	43324.7	8.36146	194.482
31	1000	43655.1	6388.49	44120.1	8.32557	196.567
32	794.328	44584.9	6539.44	45061.9	8.34429	198.748
33	630.957	45584.2	6552.55	46052.7	8.18001	200.773
34	501.187	46514.6	6672.96	46990.8	8.16392	202.568
35	398.107	47469.9	6773.95	47950.7	8.12128	204.368
36	316.228	48428	6881.87	48914.5	8.08788	206.388
37	251.189	49398.7	7008.72	49893.4	8.075265	208.418
38	199.526	50375	7170.86	50882.8	8.10161	210.473
39	158.489	51360	7360.51	51884.7	8.15565	212.513
40	125.893	52394.5	7579.25	52939.8	8.23116	214.583
41	100	53450.6	7835.45	54021.8	8.33973	216.658
42	79.4328	54528.8	8194.18	55141	8.54604	218.663
43	63.0957	55693.7	8519.9	56341.6	8.69755	220.873
44	50.1187	56895.4	8869.06	57582.5	8.86016	222.968
45	39.8107	58179.2	9254.76	58910.7	9.0385	232.878
46	31.6228	59518.1	9662.46	60297.3	9.22123	235.118
47	25.1189	60938.1	10093.9	61768.4	9.40514	237.403
48	19.9526	62422.2	10525.5	63303.4	9.57102	240.178
49	15.8489	63992.3	10985.6	64928.4	9.74109	242.818
50	12.5893	65638.7	11447.1	66629.4	9.8926	245.613
51	10	67354.5	11904.2	68398.3	10.0229	248.413
52	7.94328	69102.8	12525.3	70228.8	10.2737	251.448
53	6.30957	70958.5	12964.2	72133	10.3538	254.614
54	5.01187	72925.2	13401.6	74146.4	10.4132	257.674
55	3.98107	74999.2	13803.3	76258.8	10.4283	260.859
56	3.16228	77055.3	14252.4	78362.3	10.4792	264.019
57	2.51189	79207.8	14721	80564.2	10.5284	267.284
58	1.99526	81338.8	15166.5	82740.7	10.5621	270.804
59	1.58489	83608.7	15623.9	85056	10.5848	274.104
60	1.25893	85881.1	16077.8	87373.1	10.6036	277.494
61	1	88231.6	16531.1	89766.8	10.6119	283.879
62	0.794328	90665	16933.3	92232.7	10.5791	287.824
63	0.630957	93048.1	17442.7	94668.9	10.6174	291.909
64	0.501187	95413.8	18001.7	97097.1	10.6844	296.484
65	0.398107	97802.5	18668.5	99568.3	10.8066	301.444
66	0.316228	100123	19467.2	101998	11.0029	306.685
67	0.251189	102362	20515.9	104398	11.3334	312.8
68	0.199526	104590	21908.3	106859.615	11.8306	319.5
69	0.158489	106800	23703.3	109399	12.5135	327.295
70	0.125893	109099	26025.9	112160	13.4173	336.46
71	0.1	111509	28922.2	115198	14.5405	347.15

File: Z_beam6_20241129.txt
Index	Frequency (Hz)	Z' (Ω)	-Z'' (Ω)	Z (Ω)	-Phase (°)	Time (s)
1	1000000	2438.39	5524.42	6038.62	66.1841	53.0448
2	794328.25	3357.97	6283.25	7124.27	61.8785	63.39
3	630957.375	4419.75	7094.77	8358.82	58.0788	68.7951
4	501187	5610.56	7881.19	9674.27	54.5532	71.5051
5	398107	6913.99	8755.67	11156.4	51.7033	80.0953
6	316228	8418.53	9551.16	12731.7	48.6066	82.2803
7	251189	10091.9	10346.5	14453.2	45.7135	88.9605
8	199526	11957.4	11153	16351.4	43.0066	91.1255
9	158489	13964.6	11839.9	18308.3	40.293	93.5056
10	125893	16225.2	12360.7	20397.1	37.3009	95.1406
11	100000	18424.4	12655.3	22352.1	34.4842	96.8706
12	79432.8	20634.2	12953.1	24362.9	32.1185	102.231
13	63095.7	22999.6	12830.1	26336.2	29.1546	106.846
14	50118.7	25277.7	12525.5	28210.825	26.3592	114.091
15	39810.7	27522.7	12052.4	30045.9	23.6489	116.816
16	31622.8	29487.4	11502.5	31651.5	21.3098	125.351
17	25118.9	31300.6	10876	33136.3	19.1608	128.941
18	19952.6	32930.9	10204.6	34475.7	17.2171	131.561
19	15848.9	34399	9540.11	35697.4	15.5006	139.691
20	12589.3	35694.7	8907.6	36789.4	14.012	150.197
21	10000	36856.5	8327.69	37785.6	12.7322	158.517
22	7943.28	37888.9	7808.66	38685.2	11.6452	164.832
23	6309.57	38855.7	7386.03	39551.5	10.7629	171.417
24	5011.87	39735.5	7061.19	40358.1	10.0765	183.317
25	3981.07	40563.2	6783.21	41126.5	9.49347	185.422
26	3162.28	41422.1	6630.26	41949.4	9.09395	187.327
27	2511.89	42241.9	6535.78	42744.5	8.79521	189.152
28	1995.26	43084.7	6499.97	43572.2	8.57923	191.002
29	1584.89	43896.8	6578.62	44387	8.52323	192.732
30	1258.93	44836	6590.09	45317.8	8.36157	194.482
31	1000	45787.4	6590	46259.2	8.19012	196.567
32	794.328	46674.3	6734.26	47157.6	8.21008	198.748
33	630.957	47633.9	6881.41	48128.4	8.22033	200.773
34	501.187	48610.9	6943.3	49104.2	8.12882	202.568
35	398.107	49763	7101.08	50267.2	8.12116	204.368
36	316.228	50767.9	7212.43	51277.7	8.08571	206.388
37	251.189	51786.5	7352.4	52305.8	8.08058	208.418
38	199.526	52814	7506.94	53344.8	8.08979	210.473
39	158.489	53855.1	7706.33	54403.7	8.14338	212.513
40	125.893	54917.8	7931.94	55487.7	8.21857	214.583
41	100	56028.2	8202.82	56625.5	8.32923	216.658
42	79.4328	57158.1	8565.13	57796.3	8.52235	218.663
43	63.0957	58378.8	8898.49	59053.1	8.6667	220.873
44	50.1187	59636.8	9223.8	60345.9	8.79206	222.968
45	39.8107	60968.6	9667.28	61730.3	9.0099	232.878
46	31.6228	62362.5	10090.4	63173.6	9.19091	235.118
47	25.1189	63845.4	10539.8	64709.5	9.37405	237.403
48	19.9526	65389.2	10994.9	66307.1	9.54476	240.178
49	15.8489	67029.1	11470.6	68003.5	9.71086	242.818
50	12.5893	68747.3	11965.1	69780.8	9.87314	245.613
51	10	70543.9	12461.7	71636.2	10.0181	248.413
52	7.94328	72385.8	13087.8	73559.5	10.2487	251.448
53	6.30957	74367.2	13480.1	75579	10.2741	254.614
54	5.01187	76402.3	13972.1	77669.4	10.3635	257.674
55	3.98107	78549	14461	79869.1	10.4314	260.859
56	3.16228	80689	14927.7	82058.2	10.4814	264.019
57	2.51189	82951.9	15416.5	84372.3	10.5282	267.284
58	1.99526	85187.7	15884.4	86656	10.5623	270.804
59	1.58489	87574.9	16361.4	89090.1	10.5824	274.104
60	1.25893	89959.4	16823.591	91518.9	10.5927	277.494
61	1	92432.6	17295.2	94036.8	10.5981	283.879
62	0.794328	94978.1	17719.7	96616.9	10.568	287.824
63	0.630957	97482.1	18229.6	99172	10.5923	291.909
64	0.501187	99977.2	18778.9	101726	10.638	296.484
65	0.398107	102481	19423.1	104306	10.7319	301.444
66	0.316228	104929	20198.6	106855	10.896	306.685
67	0.251189	107283	21225.4	109363	11.1912	312.8
68	0.199526	109608	22568.3	111907	11.6346	319.5
69	0.158489	111919.703	24336.9	114535	12.268	327.295
70	0.125893	114282	26629.6	117343	13.1169	336.46
71	0.1	116786	29531.6	120462	14.1909	347.15