Folder: Streamlit_cement_impedance/data/plate_beam (part 5)

File: Z_beam6_20241205.txt
Index	Frequency (Hz)	Z' (Ω)	-Z'' (Ω)	Z (Ω)	-Phase (°)	Time (s)
1	1000000	2292.27	5609.33	6059.63	67.7724	53.0448
2	794328.25	3219.58	6472.24	7228.8	63.5522	63.39
3	630957.375	4277.23	7326.71	8483.83	59.7242	68.7951
4	501187	5483.24	8247.67	9904.04	56.3831	71.5051
5	398107	6827.63	9139.18	11407.9	53.2376	80.0953
6	316228	8357.43	10104.4	13112.8	50.4054	82.2803
7	251189	10140	11029.6	14982.4	47.4065	88.9605
8	199526	12063.3	11887.7	16936.4	44.5799	91.1255
9	158489	14213.3	12769.5	19107	41.937	93.5056
10	125893	16620.3	13424.6	21364.8	38.9287	95.1406
11	100000	19069.2	14009.2	23662.1	36.3029	96.8706
12	79432.8	21507.1	14346.1	25852.8	33.705	102.231
13	63095.7	24160.4	14291.2	28070.6	30.6049	106.846
14	50118.7	26739.4	14048.9	30205.5	27.7175	114.091
15	39810.7	29285.1	13606.6	32291.8	24.9208	116.816
16	31622.8	31564.3	13056	34158	22.4715	125.351
17	25118.9	33676.9	12381.5	35880.8	20.1861	128.941
18	19952.6	35590.9	11644.3	37447.3	18.1165	131.561
19	15848.9	37309.8	10857	38857.4	16.2247	139.691
20	12589.3	38826.7	10101.8	40119.3	14.5837	150.197
21	10000	40195.1	9414.24	41282.9	13.1818	158.517
22	7943.28	41388.5	8750.47	42303.4	11.9378	164.832
23	6309.57	42477.5	8188.36	43259.5	10.911	171.417
24	5011.87	43442.2	7724.41	44123.6	10.0823	183.317
25	3981.07	44367.4	7312.83	44966	9.35959	185.422
26	3162.28	45244.7	7025.39	45786.9	8.82614	187.327
27	2511.89	46046.9	6850.8	46553.7	8.46232	189.152
28	1995.26	46844.9	6695.99	47321	8.13473	191.002
29	1584.89	47685.7	6702.41	48154.4	8.00072	192.732
30	1258.93	48562.5	6736.36	49027.5	7.89741	194.482
31	1000	49503.5	6832.13	49972.8	7.85792	196.567
32	794.328	50425	6871.95	50891.1	7.7605	198.748
33	630.957	51283.6	7102.57	51773.1	7.88507	200.773
34	501.187	52344	7241.96	52842.6	7.87705	202.568
35	398.107	53370.7	7429.96	53885.4	7.92544	204.368
36	316.228	54425.9	7609.19	54955.3	7.95883	206.388
37	251.189	55508.3	7803.3	56054.1	8.00215	208.418
38	199.526	56623.7	8024.42	57189.4	8.06596	210.473
39	158.489	57747.3	8265.44	58335.9	8.14548	212.513
40	125.893	58910.1	8541.24	59526.1	8.24969	214.583
41	100	60111.1	8855.35	60759.9	8.38032	216.658
42	79.4328	61342.5	9253.27	62036.4	8.57817	218.663
43	63.0957	62675.1	9630.49	63410.7	8.7356	220.873
44	50.1187	64052.3	10011.2	64830	8.88327	222.968
45	39.8107	65505.1	10460.9	66335.1	9.07328	232.878
46	31.6228	67014.1	10934.1	67900.2	9.26678	235.118
47	25.1189	68624.5	11435.2	69570.7	9.46054	237.403
48	19.9526	70301.7	11945	71309.3	9.64303	240.178
49	15.8489	72081.3	12479	73153.5	9.82189	242.818
50	12.5893	73940	13023	75078.1	9.98898	245.613
51	10	75906.6	13574.8	77110.9	10.1393	248.413
52	7.94328	77923.6	14160.8	79199.9	10.2997	251.448
53	6.30957	80032.1	14708.2	81372.4	10.4135	254.614
54	5.01187	82252.4	15259.8	83655.9	10.5102	257.674
55	3.98107	84582.7	15820.3	86049.5	10.5942	260.859
56	3.16228	86930.5	16357.1	88456	10.6563	264.019
57	2.51189	89397.5	16917	90984.1	10.7156	267.284
58	1.99526	91843.7	17459.938	93488.5	10.7638	270.804
59	1.58489	94460	18021.4	96163.7	10.8013	274.104
60	1.25893	97085.4	18567.3	98844.9	10.8269	277.494
61	1	99808.2	19125.2	101624	10.8475	283.879
62	0.794328	102627	19669	104495	10.8495	287.824
63	0.630957	105428	20262.2	107358	10.879	291.909
64	0.501187	108226	20884.7	110223	10.9222	296.484
65	0.398107	111087	21591.9	113166	10.9994	301.444
66	0.316228	113852	22400.2	116034	11.1307	306.685
67	0.251189	116548	23436.7	118881	11.37	312.8
68	0.199526	119207	24783.6	121756	11.7447	319.5
69	0.158489	121825.341	26546.6	124684	12.293	327.295
70	0.125893	124469	28841.1	127767	13.0459	336.46
71	0.1	127191	31732.5	131089.511	14.0086	347.15

File: Z_beam6_20241212.txt
Index	Frequency (Hz)	Z' (Ω)	-Z'' (Ω)	Z (Ω)	-Phase (°)	Time (s)
1	1000000	2339.31	5885.74	6333.59	68.3245	53.0448
2	794328.25	3266.52	6734.91	7485.26	64.126	63.39
3	630957.375	4374.69	7701.8	8857.51	60.4031	68.7951
4	501187	5659.82	8731.16	10405.1	57.0474	71.5051
5	398107	6982.73	9715.95	11964.9	54.2957	80.0953
6	316228	8612.43	10846	13849.5	51.5481	82.2803
7	251189	10448.3	11920	15850.9	48.7643	88.9605
8	199526	12551.8	12932.7	18022.3	45.8561	91.1255
9	158489	14870.7	14105	20496.1	43.4863	93.5056
10	125893	17457.3	14915.8	22961.7	40.5111	95.1406
11	100000	20262.433	15572.1	25555	37.5431	96.8706
12	79432.8	22931.6	16153.8	28050.1	35.1622	102.231
13	63095.7	25926.9	16231.7	30588.8	32.0489	106.846
14	50118.7	28900.2	16111.2	33087.6	29.1387	114.091
15	39810.7	31855.2	15714.7	35520.5	26.2578	116.816
16	31622.8	34546.7	15189.3	37738.5	23.7338	125.351
17	25118.9	37067.5	14503.9	39804.1	21.3696	128.941
18	19952.6	39371.3	13694.7	41685.1	19.1794	131.561
19	15848.9	41421.1	12848.7	43368.1	17.2338	139.691
20	12589.3	43260.2	11994.8	44892.3	15.4971	150.197
21	10000	44951.9	11183.7	46322.2	13.9711	158.517
22	7943.28	46425.8	10447.2	47586.7	12.682	164.832
23	6309.57	47727.9	9726.8	48709	11.519	171.417
24	5011.87	48866.9	9146.59	49715.5	10.6016	183.317
25	3981.07	50042.3	8662.17	50786.5	9.82041	185.422
26	3162.28	51040.8	8237.07	51701.2	9.16747	187.327
27	2511.89	52060.2	7977.94	52668	8.71248	189.152
28	1995.26	52947.4	7839.52	53524.6	8.42216	191.002
29	1584.89	53878	7743.82	54431.6	8.17904	192.732
30	1258.93	54920.8	7738.93	55463.4	8.02078	194.482
31	1000	55902.7	7817.89	56446.7	7.96108	196.567
32	794.328	56984.4	7981.1	57540.6	7.97285	198.748
33	630.957	58106.3	7984.86	58652.3	7.82448	200.773
34	501.187	59248	8165.56	59808	7.84708	202.568
35	398.107	60427.6	8361.5	61003.3	7.87812	204.368
36	316.228	61636.6	8572.2	62229.8	7.91771	206.388
37	251.189	62874.4	8794.24	63486.5	7.9623	208.418
38	199.526	64133.1	9034.57	64766.4	8.01861	210.473
39	158.489	65417.9	9302.43	66075.9	8.09321	212.513
40	125.893	66733.2	9597.37	67419.8	8.18399	214.583
41	100	68086.9	9933.2	68807.6	8.30033	216.658
42	79.4328	69472.9	10357.1	70240.7	8.47925	218.663
43	63.0957	70946.9	10767.5	71759.4	8.62985	220.873
44	50.1187	72469.6	11209.6	73331.5	8.79282	222.968
45	39.8107	74086.9	11698.7	75004.9	8.97323	232.878
46	31.6228	75766.9	12219.4	76745.9	9.16156	235.118
47	25.1189	77558.5	12775.2	78603.6	9.35357	237.403
48	19.9526	79423	13342.6	80535.9	9.53629	240.178
49	15.8489	81403.4	13941.7	82588.6	9.71854	242.818
50	12.5893	83478.9	14556.4	84738.6	9.89131	245.613
51	10	85666.5	15183.6	87001.6	10.0508	248.413
52	7.94328	87920.8	15873.9	89342.3	10.2344	251.448
53	6.30957	90279.5	16495.7	91774.1	10.3547	254.614
54	5.01187	92766.4	17124	94333.6	10.4587	257.674
55	3.98107	95386.7	17746.5	97023.5	10.5392	260.859
56	3.16228	98020.2	18363.7	99725.6	10.6112	264.019
57	2.51189	100798	19013.1	102575	10.682	267.284
58	1.99526	103550	19629.1	105394	10.7337	270.804
59	1.58489	106497	20263.5	108408	10.773	274.104
60	1.25893	109465	20883.1	111439	10.8008	277.494
61	1	112548	21519.5	114587	10.8244	283.879
62	0.794328	115711	22204	117822	10.8626	287.824
63	0.630957	118907	22834.7	121079.787	10.8707	291.909
64	0.501187	122118	23485.7	124356.182	10.8862	296.484
65	0.398107	125402	24216.6	127718	10.93	301.444
66	0.316228	128594	25011.5	131003.696	11.0066	306.685
67	0.251189	131718	26018.4	134263	11.1739	312.8
68	0.199526	134799	27320.2	137540	11.4571	319.5
69	0.158489	137789	29023.7	140813	11.8948	327.295
70	0.125893	140788	31234.1	144211	12.5086	336.46
71	0.1	143818	34106.984	147806.874	13.3414	347.15

File: Z_beam6_20241219.txt
Index	Frequency (Hz)	Z' (Ω)	-Z'' (Ω)	Z (Ω)	-Phase (°)	Time (s)
1	1000000	2565.48	5951.89	6481.25	66.6822	53.0448
2	794328.25	3480.21	6871.31	7702.39	63.1385	63.39
3	630957.375	4592.31	7827.42	9075.12	59.6	68.7951
4	501187	5862.17	8858.82	10622.8	56.5061	71.5051
5	398107	7362.35	9925.7	12358.1	53.434	80.0953
6	316228	8956.4	10944	14141.7	50.7036	82.2803
7	251189	10802	11922.5	16088.2	47.8227	88.9605
8	199526	12933	12999.5	18337.1	45.1468	91.1255
9	158489	15206.2	14048.3	20702.2	42.7335	93.5056
10	125893	17776.3	14825	23146.9	39.8273	95.1406
11	100000	20364.6	15552.813	25624.3	37.3697	96.8706
12	79432.8	23260.1	16098.9	28288	34.6881	102.231
13	63095.7	26247.3	16164.7	30825.6	31.6274	106.846
14	50118.7	29206.6	15999.8	33301.9	28.7146	114.091
15	39810.7	32148.8	15572.3	35721.8	25.8447	116.816
16	31622.8	34794.6	15021.1	37898.5	23.3502	125.351
17	25118.9	37272.8	14311.4	39925.9	21.005	128.941
18	19952.6	39522.4	13496.5	41763.3	18.8546	131.561
19	15848.9	41531.8	12619.1	43406.6	16.901	139.691
20	12589.3	43330.8	11814.7	44912.7	15.2517	150.197
21	10000	44929.9	10998.4	46256.5	13.7549	158.517
22	7943.28	46350.7	10262.6	47473.2	12.4846	164.832
23	6309.57	47598.4	9605.96	48558	11.4098	171.417
24	5011.87	48769.7	9100	49611.4	10.5693	183.317
25	3981.07	49828.7	8701.31	50582.8	9.90536	185.422
26	3162.28	50885.7	8347.37	51565.8	9.31593	187.327
27	2511.89	51915.2	8179.37	52555.6	8.95349	189.152
28	1995.26	52826	8076.04	53439.8	8.69207	191.002
29	1584.89	53928.7	8083.54	54531.1	8.52478	192.732
30	1258.93	54975.6	8146.04	55575.9	8.4285	194.482
31	1000	56098.037	8135.27	56684.9	8.25144	196.567
32	794.328	57230.8	8338.27	57835.1	8.28941	198.748
33	630.957	58415	8453.7	59023.6	8.23456	200.773
34	501.187	59642.9	8585.27	60257.6	8.19115	202.568
35	398.107	60882	8714.42	61502.5	8.14577	204.368
36	316.228	62133.5	8845.69	62760	8.10251	206.388
37	251.189	63396.8	8999.06	64032.4	8.07905	208.418
38	199.526	64666.6	9169.76	65313.5	8.07077	210.473
39	158.489	65948.5	9376.15	66611.7	8.09172	212.513
40	125.893	67247.4	9619.63	67931.9	8.14084	214.583
41	100	68589.3	9912.39	69301.8	8.22334	216.658
42	79.4328	69952	10320.8	70709.3	8.39294	218.663
43	63.0957	71420.4	10668.7	72212.9	8.49599	220.873
44	50.1187	72919.8	11090.6	73758.3	8.64805	222.968
45	39.8107	74514.4	11564.7	75406.5	8.82197	232.878
46	31.6228	76168.3	12067.9	77118.4	9.00299	235.118
47	25.1189	77932.7	12609	78946.1	9.19042	237.403
48	19.9526	79772.2	13161.9	80850.7	9.36905	240.178
49	15.8489	81724.7	13749.5	82873.2	9.55009	242.818
50	12.5893	83770.3	14353.9	84991.1	9.72309	245.613
51	10	85926.9	14968.4	87220.9	9.88175	248.413
52	7.94328	88145.8	15653.8	89524.9	10.0702	251.448
53	6.30957	90472.7	16260.7	91922.4	10.189	254.614
54	5.01187	92937.7	16874.114	94457.2	10.2907	257.674
55	3.98107	95520	17481.9	97106.6	10.3714	260.859
56	3.16228	98123	18074.1	99773.7	10.4368	264.019
57	2.51189	100861	18691	102578	10.4987	267.284
58	1.99526	103582	19273.5	105360	10.5405	270.804
59	1.58489	106492.006	19872.2	108330	10.5702	274.104
60	1.25893	109403	20448.1	111298	10.5867	277.494
61	1	112438	21029.6	114388	10.5938	283.879
62	0.794328	115546	21652	117557	10.6135	287.824
63	0.630957	118656	22213	120717	10.6033	291.909
64	0.501187	121783	22811.4	123901	10.6093	296.484
65	0.398107	124955	23486.1	127143.102	10.6449	301.444
66	0.316228	128056	24232.3	130329	10.7155	306.685
67	0.251189	131069	25203.3	133471	10.8845	312.8
68	0.199526	134014	26466.3	136603	11.1715	319.5
69	0.158489	136918.158	28151.449	139782.281	11.6185	327.295
70	0.125893	139814	30391.4	143078	12.2636	336.46
71	0.1	142761	33263.1	146584.943	13.1158	347.15

File: Z_beam7_20241120.txt
Index	Frequency (Hz)	Z' (Ω)	-Z'' (Ω)	Z (Ω)	-Phase (°)	Time (s)
1	1000000	3981.18	8366.24	9265.2	64.552	53.0448
2	794328.25	5309.41	9558.14	10933.8	60.9485	63.39
3	630957.375	6757.86	10917.2	12839.6	58.2421	68.7951
4	501187	8536.14	12343.5	15007.6	55.3342	71.5051
5	398107	10454.1	13860.9	17361.3	52.9758	80.0953
6	316228	12788.2	15493.3	20089.3	50.4637	82.2803
7	251189	15169.8	17175.8	22915.7	48.5489	88.9605
8	199526	18244.6	18897.7	26267.6	46.0073	91.1255
9	158489	21601.9	20585	29839.2	43.6192	93.5056
10	125893	25288	22260.6	33690	41.3569	95.1406
11	100000	29051	23664.4	37469.5	39.1655	96.8706
12	79432.8	33276.1	24969.8	41602.7	36.8839	102.231
13	63095.7	37811.5	25632.1	45680.6	34.1331	106.846
14	50118.7	42413.9	26072.5	49786.7	31.5797	114.091
15	39810.7	47173.9	26243.5	53982.3	29.0878	116.816
16	31622.8	51646.8	26250.8	57935.2	26.9431	125.351
17	25118.9	56047.026	26081.2	61818.3	24.9547	128.941
18	19952.6	60332.7	25738.9	65593.6	23.1039	131.561
19	15848.9	64425.7	25275.8	69206.5	21.4213	139.691
20	12589.3	68413.4	24699.9	72735.7	19.8516	150.197
21	10000	72221.3	24052.3	76121.2	18.4196	158.517
22	7943.28	75798.1	23596.8	79386.1	17.2919	164.832
23	6309.57	79320.2	22725.8	82511.5	15.9874	171.417
24	5011.87	82650.8	21821.6	85483	14.7898	183.317
25	3981.07	85800.8	20983.4	88329.4	13.7425	185.422
26	3162.28	88793.6	20119.9	91044.5	12.7672	187.327
27	2511.89	91566.3	19316.1	93581.5	11.912	189.152
28	1995.26	94240.5	18618.9	96062.2	11.1759	191.002
29	1584.89	96733.8	17992.7	98392.9	10.5367	192.732
30	1258.93	99179.5	17455.1	100704	9.98156	194.482
31	1000	101550.028	17041.7	102970	9.52635	196.567
32	794.328	103779	16617	105101	9.09693	198.748
33	630.957	105943	16311.2	107191	8.75265	200.773
34	501.187	108171	16197	109377	8.51589	202.568
35	398.107	110314	16184	111495	8.34622	204.368
36	316.228	112489	16276	113660	8.23298	206.388
37	251.189	114671	16475.9	115849	8.17626	208.418
38	199.526	116895	16782.2	118093	8.16991	210.473
39	158.489	119179	17169.212	120409	8.19777	212.513
40	125.893	121518	17659.8	122794	8.26874	214.583
41	100	123965	18243.3	125300	8.3718	216.658
42	79.4328	126483	19035.7	127907	8.55878	218.663
43	63.0957	129167	19768	130671	8.70113	220.873
44	50.1187	131941	20563.2	133534	8.85833	222.968
45	39.8107	134899	21439.6	136592	9.03054	232.878
46	31.6228	137964	22368.5	139765.406	9.2094	235.118
47	25.1189	141223	23358.8	143142	9.39188	237.403
48	19.9526	144609	24390.2	146651	9.57361	240.178
49	15.8489	148171	25475.9	150346	9.75579	242.818
50	12.5893	151913	26621.3	154228	9.93963	245.613
51	10	155850	27782.3	158307	10.1076	248.413
52	7.94328	159857	29179	162497.871	10.3444	251.448
53	6.30957	164107	30390.2	166897	10.4915	254.614
54	5.01187	168582	31660	171529	10.6363	257.674
55	3.98107	173315	32967.5	176422	10.77	260.859
56	3.16228	178114	34318.3	181390	10.9059	264.019
57	2.51189	183189	35721.8	186639	11.0342	267.284
58	1.99526	188296	37149.3	191926	11.1607	270.804
59	1.58489	193760.08	38626	197573	11.2741	274.104
60	1.25893	199268	40081.7	203260	11.373	277.494
61	1	205021	41601.4	209199	11.4703	283.879
62	0.794328	210791	43579.3	215249	11.6809	287.824
63	0.630957	216690	45164	221346.465	11.7734	291.909
64	0.501187	222584	46936.6	227479	11.9076	296.484
65	0.398107	228575	49080.1	233785	12.1187	301.444
66	0.316228	234460	51591.1	240068.999	12.4097	306.685
67	0.251189	240252.4	54835.1	246431	12.8569	312.8
68	0.199526	246193	58867.6	253133	13.4476	319.5
69	0.158489	252289	63864.1	260247	14.2054	327.295
70	0.125893	258724	69959.6	268016.076	15.131	336.46
71	0.1	265645	77332.9	276673	16.231	347.15

File: Z_beam7_20241129.txt
Index	Frequency (Hz)	Z' (Ω)	-Z'' (Ω)	Z (Ω)	-Phase (°)	Time (s)
1	1000000	3971.96	8453.3	9339.95	64.8325	53.0448
2	794328.25	5285.25	9723.19	11066.8	61.4728	63.39
3	630957.375	6799.56	11108.6	13024.4	58.5294	68.7951
4	501187	8604.94	12543.2	15211	55.5488	71.5051
5	398107	10552.7	14074.3	17591	53.138	80.0953
6	316228	12735.9	15830.7	20317.8	51.183	82.2803
7	251189	15413.5	17653.2	23435.3	48.8749	88.9605
8	199526	18266.6	19532	26742.6	46.9174	91.1255
9	158489	21796.7	21245.6	30438	44.2665	93.5056
10	125893	25234.5	22931.1	34097.2	42.262	95.1406
11	100000	29536.2	24540.674	38401	39.7221	96.8706
12	79432.8	33890.5	25972.3	42698.1	37.4652	102.231
13	63095.7	38586.4	26711.5	46929.9	34.6929	106.846
14	50118.7	43415.4	27264.2	51266.3	32.1282	114.091
15	39810.7	48409.1	27501.4	55675.5	29.601	116.816
16	31622.8	53079.5	27590.8	59822.2	27.4655	125.351
17	25118.9	57736.3	27448.2	63928.8	25.4267	128.941
18	19952.6	62266.7	27180	67940.4	23.5818	131.561
19	15848.9	66646.2	26694.6	71793.6	21.8282	139.691
20	12589.3	70816	26103.4	75473.8	20.2343	150.197
21	10000	74898.5	25581.7	79146.8	18.8577	158.517
22	7943.28	78737.7	25057.7	82628.8	17.6533	164.832
23	6309.57	82506.5	24121.1	85960.2	16.2965	171.417
24	5011.87	86071.5	23215.9	89147.6	15.0951	183.317
25	3981.07	89419.3	22299.8	92158	14.003	185.422
26	3162.28	92593.9	21448.5	95045.6	13.042	187.327
27	2511.89	95662.6	20536.1	97842	12.1159	189.152
28	1995.26	98407.22	19827.3	100385	11.3916	191.002
29	1584.89	101160	19121.7	102951	10.704	192.732
30	1258.93	103684.147	18513.9	105324	10.1241	194.482
31	1000	106141	18103.5	107674	9.67925	196.567
32	794.328	108596	17642.9	110020	9.22788	198.748
33	630.957	110941	17344.1	112289	8.88547	200.773
34	501.187	113271	17184.8	114567	8.62678	202.568
35	398.107	115559	17150	116824	8.44158	204.368
36	316.228	117852	17221.3	119104	8.31358	206.388
37	251.189	120166.7	17402.7	121420	8.24037	208.418
38	199.526	122511	17701.4	123784	8.22167	210.473
39	158.489	124924	18102	126229	8.24499	212.513
40	125.893	127394	18590.5	128743	8.30253	214.583
41	100	129958	19213	131371	8.40968	216.658
42	79.4328	132595	20005.7	134096	8.57993	218.663
43	63.0957	135417	20766.6	137000	8.71855	220.873
44	50.1187	138333	21596.8	140009	8.87348	222.968
45	39.8107	141432	22506.7	143211	9.04196	232.878
46	31.6228	144642	23477.5	146535	9.21955	235.118
47	25.1189	148058	24516.4	150074	9.40211	237.403
48	19.9526	151598	25595.1	153743	9.58321	240.178
49	15.8489	155353	26739.9	157638	9.76623	242.818
50	12.5893	159259	27932.8	161690	9.94807	245.613
51	10	163404	29169.8	165987	10.1215	248.413
52	7.94328	167583	30660.3	170365	10.3679	251.448
53	6.30957	172053.252	31947.5	174994	10.5191	254.614
54	5.01187	176761	33278	179867	10.662	257.674
55	3.98107	181730	34686.1	185011	10.8059	260.859
56	3.16228	186751	36102.9	190208	10.9415	264.019
57	2.51189	192096	37601.5	195742	11.0752	267.284
58	1.99526	197484	39114.3	201320	11.2032	270.804
59	1.58489	203254	40699.8	207289	11.3232	274.104
60	1.25893	209075	42256.4	213302	11.4262	277.494
61	1	215169	43868.9	219595	11.5236	283.879
62	0.794328	221293.778	45971.3	226018	11.7356	287.824
63	0.630957	227601	47620.6	232529	11.8174	291.909
64	0.501187	233870	49432.4	239037	11.9348	296.484
65	0.398107	240251	51601	245730	12.1218	301.444
66	0.316228	246565	54126.6	252436	12.3813	306.685
67	0.251189	252759	57350.6	259183.496	12.7839	312.8
68	0.199526	259035.087	61349.7	266201	13.3244	319.5
69	0.158489	265509	66338.5	273671	14.0284	327.295
70	0.125893	272276	72459.6	281753	14.9024	336.46
71	0.1	279522	79832.9	290699	15.9396	347.15

File: Z_beam7_20241205.txt
Index	Frequency (Hz)	Z' (Ω)	-Z'' (Ω)	Z (Ω)	-Phase (°)	Time (s)
1	1000000	3967.45	8741.58	9599.78	65.5886	53.0448
2	794328.25	5252.33	10049.4	11339.2	62.4062	63.39
3	630957.375	6806.83	11569.6	13423.4	59.53	68.7951
4	501187	8619.25	13160.5	15731.8	56.7779	71.5051
5	398107	10563.3	14843.2	18218.3	54.5621	80.0953
6	316228	12931.4	16811.2	21209.3	52.4321	82.2803
7	251189	15773.7	18789.5	24532.7	49.9866	88.9605
8	199526	18694.1	20869.2	28017.8	48.1468	91.1255
9	158489	22458.9	22890.5	32068.3	45.5453	93.5056
10	125893	26330.9	24952.3	36275.8	43.4601	95.1406
11	100000	30671.4	26869.3	40776.1	41.2195	96.8706
12	79432.8	35654.5	28505.7	45648.8	38.6423	102.231
13	63095.7	40882.5	29492.6	50410.2	35.8066	106.846
14	50118.7	46262.2	30232.7	55264.9	33.1649	114.091
15	39810.7	51819	30629.9	60194.7	30.5871	116.816
16	31622.8	57137.5	30813	64916.4	28.337	125.351
17	25118.9	62396.8	30760.1	69566.8	26.2422	128.941
18	19952.6	67526.6	30466.2	74081.2	24.2836	131.561
19	15848.9	72457.2	29977.1	78413.5	22.4759	139.691
20	12589.3	77205.5	29399.3	82613.6	20.8464	150.197
21	10000	81829.5	28656.3	86702	19.3	158.517
22	7943.28	86176.8	28077.5	90635.4	18.0463	164.832
23	6309.57	90467	27075.4	94431.7	16.6617	171.417
24	5011.87	94447.5	26020.3	97966.3	15.4029	183.317
25	3981.07	98292.8	24966.5	101414	14.2518	185.422
26	3162.28	101852	23960.7	104632	13.2382	187.327
27	2511.89	105207	22995.9	107691.326	12.3296	189.152
28	1995.26	108427	22137.3	110664	11.5393	191.002
29	1584.89	111424	21338.8	113449	10.8415	192.732
30	1258.93	114303	20646.5	116152	10.2389	194.482
31	1000	117176	20163.3	118898	9.76366	196.567
32	794.328	119732	19568.7	121320	9.28224	198.748
33	630.957	122326	19286	123837	8.95953	200.773
34	501.187	124863	19020.1	126304	8.66114	202.568
35	398.107	127384	18960.7	128787	8.46617	204.368
36	316.228	129919	19016.5	131304	8.32732	206.388
37	251.189	132465	19211.5	133851	8.25212	208.418
38	199.526	135056	19526.8	136460	8.22699	210.473
39	158.489	137689	19952.7	139127	8.24543	212.513
40	125.893	140409	20490.9	141896	8.303	214.583
41	100	143231	21138	144783	8.39509	216.658
42	79.4328	146126	22004.1	147773	8.56347	218.663
43	63.0957	149220	22830.4	150956	8.69871	220.873
44	50.1187	152419	23735.6	154256.463	8.85133	222.968
45	39.8107	155818	24732.3	157768.69	9.01906	232.878
46	31.6228	159335	25795.1	161409.682	9.19594	235.118
47	25.1189	163078	26949.4	165289	9.38363	237.403
48	19.9526	166980	28139.7	169334	9.56571	240.178
49	15.8489	171079	29411.4	173589	9.75476	242.818
50	12.5893	175376	30742.9	178049.977	9.94278	245.613
51	10	179911	32134.7	182758	10.1271	248.413
52	7.94328	184531	33791.5	187599	10.3771	251.448
53	6.30957	189412	35237.4	192662	10.5386	254.614
54	5.01187	194584	36778.9	198030	10.7034	257.674
55	3.98107	200047	38365.2	203693	10.8564	260.859
56	3.16228	205596	40021.8	209455	11.0156	264.019
57	2.51189	211470	41753.5	215553	11.1691	267.284
58	1.99526	217403	43552.3	221722	11.3281	270.804
59	1.58489	223775.922	45450.2	228345	11.4809	274.104
60	1.25893	230259	47359.6	235079	11.6225	277.494
61	1	237061.432	49335.7	242141	11.7562	283.879
62	0.794328	243921	51960.1	249394	12.0254	287.824
63	0.630957	251034	54003.9	256777	12.1408	291.909
64	0.501187	258187	56238.3	264241	12.2882	296.484
65	0.398107	265530	58808.4	271964	12.488	301.444
66	0.316228	272795	61795.5	279707	12.7636	306.685
67	0.251189	279967	65491.8	287525	13.1663	312.8
68	0.199526	287489	69461	295761	13.5831	319.5
69	0.158489	294846	75185.5	304281	14.3055	327.295
70	0.125893	302653	82125.3	313597	15.1817	336.46
71	0.1	311000	90453.1	323887.3	16.2169	347.15

File: Z_beam7_20241212.txt
Index	Frequency (Hz)	Z' (Ω)	-Z'' (Ω)	Z (Ω)	-Phase (°)	Time (s)
1	1000000	3991.31	9144.44	9977.54	66.42	53.0448
2	794328.25	5354.3	10564.2	11843.6	63.1226	63.39
3	630957.375	6956.1	12135.7	13987.9	60.1789	68.7951
4	501187	8809.36	13878.3	16438.1	57.5943	71.5051
5	398107	10834.4	15734.6	19104	55.4499	80.0953
6	316228	13327.6	17860.4	22285	53.2695	82.2803
7	251189	16144.1	19980.2	25687.4	51.0616	88.9605
8	199526	19520.7	22441.2	29743.3	48.9814	91.1255
9	158489	23119.6	24857.9	33947.4	47.075	93.5056
10	125893	27531.1	27219.6	38715.2	44.6741	95.1406
11	100000	32153	29434.7	43591.4	42.4728	96.8706
12	79432.8	37612.9	31488	49053.3	39.9347	102.231
13	63095.7	43418.5	32827.6	54431.7	37.092	106.846
14	50118.7	49441.7	33880.2	59936.2	34.4211	114.091
15	39810.7	55743.8	34527	65570.4	31.7736	116.816
16	31622.8	61739.7	34924.9	70933.4	29.496	125.351
17	25118.9	67813.6	35069.9	76345.1	27.3458	128.941
18	19952.6	73712.8	34890.2	81553.1	25.3295	131.561
19	15848.9	79454.4	34536.1	86635.7	23.4929	139.691
20	12589.3	85009.3	33995.7	91554.8	21.7967	150.197
21	10000	90411.6	33240.4	96328.5	20.1863	158.517
22	7943.28	95504.5	32497.4	100882	18.7919	164.832
23	6309.57	100479	31404.8	105273	17.3567	171.417
24	5011.87	105260	30245	109519	16.0312	183.317
25	3981.07	109692	29118.7	113491	14.8668	185.422
26	3162.28	113920	27941.2	117297	13.7809	187.327
27	2511.89	117895	26904.3	120926	12.855	189.152
28	1995.26	121702	25816.1	124410	11.9764	191.002
29	1584.89	125324	24871.5	127768.037	11.225	192.732
30	1258.93	128618.975	24130.4	130863	10.6258	194.482
31	1000	131846	23450.9	133916	10.0855	196.567
32	794.328	135000	22867.2	136923	9.61388	198.748
33	630.957	138121	22246.8	139901.42	9.14989	200.773
34	501.187	141002	22061.1	142717	8.89238	202.568
35	398.107	143913	21890.9	145569	8.64905	204.368
36	316.228	146820	21899.2	148444	8.4835	206.388
37	251.189	149768	22035.7	151380.537	8.36998	208.418
38	199.526	152736	22331.9	154360	8.31841	210.473
39	158.489	155734	22728.6	157383.849	8.30341	212.513
40	125.893	158799	23288.9	160497	8.34333	214.583
41	100	162000	23968	163764	8.41588	216.658
42	79.4328	165296	24886.6	167159	8.56204	218.663
43	63.0957	168764	25783.4	170722.118	8.68636	220.873
44	50.1187	172348	26766	174414	8.82765	222.968
45	39.8107	176166	27868.4	178356	8.98937	232.878
46	31.6228	180120	29047.3	182447	9.161	235.118
47	25.1189	184309	30323.9	186787	9.34302	237.403
48	19.9526	188687	31680.1	191328	9.53096	240.178
49	15.8489	193287	33108.5	196102	9.71998	242.818
50	12.5893	198122	34609.4	201122	9.90888	245.613
51	10	203205	36184.2	206401	10.0967	248.413
52	7.94328	208388	38102.7	211842.527	10.3618	251.448
53	6.30957	213879	39769.1	217545.297	10.5334	254.614
54	5.01187	219719	41547.6	223612	10.7079	257.674
55	3.98107	225858	43371.3	229985	10.8701	260.859
56	3.16228	232094	45242.5	236463	11.0304	264.019
57	2.51189	238777	47314.9	243420.156	11.2082	267.284
58	1.99526	245468	49378.6	250385	11.3739	270.804
59	1.58489	252691	51581.8	257902	11.5373	274.104
60	1.25893	260029	53841.9	265545	11.6984	277.494
61	1	267792	56184.8	273623	11.8492	283.879
62	0.794328	275578	59380.5	281903	12.1599	287.824
63	0.630957	283802	61729.1	290438	12.2711	291.909
64	0.501187	292594	62668.2	299230	12.089	296.484
65	0.398107	301098	65782.6	308200	12.3241	301.444
66	0.316228	309493	69189.9	317132.503	12.6018	306.685
67	0.251189	317836	73261	326170	12.9799	312.8
68	0.199526	326340	78171.5	335572	13.4708	319.5
69	0.158489	334958	84086.8	345351	14.0922	327.295
70	0.125893	343943	91321.6	355860	14.8697	336.46
71	0.1	353439	100010	367316	15.7995	347.15