Folder: Streamlit_cement_impedance/data/plate_beam (part 2)

File: Z_beam2_20241129.txt
Index	Frequency (Hz)	Z' (Ω)	-Z'' (Ω)	Z (Ω)	-Phase (°)	Time (s)
1	1000000	5249.57	7769.15	9376.44	55.9533	53.0448
2	794328.25	6446.82	8749.84	10868.4	53.6175	63.39
3	630957.375	7851.49	9837.99	12587	51.4074	68.7951
4	501187	9477.35	10961.9	14490.8	49.1543	71.5051
5	398107	11379.8	12078.7	16595.1	46.7065	80.0953
6	316228	13541.6	13253.4	18948	44.3837	82.2803
7	251189	15894.1	14366	21424.4	42.1091	88.9605
8	199526	18593.8	15447.7	24173.6	39.7198	91.1255
9	158489	21465.5	16260.9	26929.3	37.1452	93.5056
10	125893	24576.8	17035.2	29903.5	34.7274	95.1406
11	100000	27531.9	17488.3	32616.7	32.4238	96.8706
12	79432.8	30618.2	17617.2	35324.8	29.9154	102.231
13	63095.7	33783.7	17357.7	37981.9	27.1936	106.846
14	50118.7	36787.5	16952.5	40505.6	24.7413	114.091
15	39810.7	39699.359	16403.5	42954.8	22.4501	116.816
16	31622.8	42258.7	15883	45144.9	20.5988	125.351
17	25118.9	44683.3	15327.7	47239.1	18.9334	128.941
18	19952.6	46958.3	14786.1	49231.2	17.4781	131.561
19	15848.9	49108	14297.5	51147	16.2326	139.691
20	12589.3	51172.1	13865.8	53017.4	15.161	150.197
21	10000	53205.6	13416.4	54871.1	14.1527	158.517
22	7943.28	55116.7	12996.7	56628.3	13.2681	164.832
23	6309.57	57029.3	12532.6	58390.1	12.3941	171.417
24	5011.87	58808.5	12106.6	60041.7	11.6327	183.317
25	3981.07	60478.7	11651.1	61590.8	10.9043	185.422
26	3162.28	62081.8	11180.5	63080.5	10.2091	187.327
27	2511.89	63669.8	10801.4	64579.5	9.62837	189.152
28	1995.26	65090	10428.6	65920.1	9.10242	191.002
29	1584.89	66400.8	10178.2	67176.4	8.71469	192.732
30	1258.93	67867.5	9962.83	68594.8	8.35128	194.482
31	1000	69228.1	9875.21	69928.9	8.11833	196.567
32	794.328	70375.4	9764.53	71049.6	7.89931	198.748
33	630.957	71677.5	9705.67	72331.6	7.71138	200.773
34	501.187	73010.8	9616.72	73641.4	7.5036	202.568
35	398.107	74289.9	9734.68	74925	7.4653	204.368
36	316.228	75596.1	9929.54	76245.4	7.48296	206.388
37	251.189	76946.7	10179.2	77617.1	7.53587	208.418
38	199.526	78352.8	10493.1	79052.3	7.62776	210.473
39	158.489	79797.7	10867.2	80534.2	7.75511	212.513
40	125.893	81318.1	11289	82097.9	7.90359	214.583
41	100	82928.6	11746.2	83756.3	8.06191	216.658
42	79.4328	84601.9	12322.3	85494.5	8.28689	218.663
43	63.0957	86398.9	12844.4	87348.5	8.45587	220.873
44	50.1187	88266	13383.7	89274.9	8.62206	222.968
45	39.8107	90256.6	13946.9	91327.8	8.78415	232.878
46	31.6228	92321.9	14511.8	93455.5	8.93304	235.118
47	25.1189	94509.5	15078.5	95704.7	9.06483	237.403
48	19.9526	96774.7	15634	98029.4	9.17686	240.178
49	15.8489	99146.1	16186.4	100458.653	9.27218	242.818
50	12.5893	101597	16725.6	102964	9.34864	245.613
51	10	104155.581	17243.2	105573	9.40019	248.413
52	7.94328	106726	17834.8	108205.997	9.48692	251.448
53	6.30957	109391	18286.8	110909	9.4903	254.614
54	5.01187	112145	18734.6	113699	9.48408	257.674
55	3.98107	114980	19168.1	116567	9.46466	260.859
56	3.16228	117799	19575.4	119414.466	9.43499	264.019
57	2.51189	120687	19993.1	122332	9.40624	267.284
58	1.99526	123494	20418.9	125171	9.38849	270.804
59	1.58489	126406	20879.1	128119.01	9.37913	274.104
60	1.25893	129247	21388.4	131005	9.39645	277.494
61	1	132097	21978	133913	9.4462	283.879
62	0.794328	134920	22773.2	136828	9.58069	287.824
63	0.630957	137631	23701.5	139657.354	9.77108	291.909
64	0.501187	140240	24933.6	142440	10.0814	296.484
65	0.398107	142828	26611.4	145286	10.5542	301.444
66	0.316228	145362.711	28797.2	148188	11.2055	306.685
67	0.251189	147808	31727.8	151175	12.11502	312.8
68	0.199526	150382	35478.9	154510	13.2748	319.5
69	0.158489	153153	40174.6	158335	14.6985	327.295
70	0.125893	156232	45963	162853	16.3937	336.46
71	0.1	159766	52872.1	168287	18.3112	347.15

File: Z_beam2_20241205.txt
Index	Frequency (Hz)	Z' (Ω)	-Z'' (Ω)	Z (Ω)	-Phase (°)	Time (s)
1	1000000	4579.96	7534.39	8817.2	58.7056	53.0448
2	794328.25	5767.92	8555.63	10318.3	56.0135	63.39
3	630957.375	7153.95	9662.1	12022.3	53.4832	68.7951
4	501187	8730.47	10800.5	13887.9	51.0501	71.5051
5	398107	10556	12048	16018.2	48.7764	80.0953
6	316228	12533.8	13344.9	18308	46.7953	82.2803
7	251189	14952.4	14583.1	20886.3	44.2836	88.9605
8	199526	17503.7	15812	23588.1	42.0931	91.1255
9	158489	20406.5	17024.1	26575.3	39.8365	93.5056
10	125893	23527.2	17866.6	29542.3	37.2131	95.1406
11	100000	26909.6	18635.4	32732.3	34.7034	96.8706
12	79432.8	30090.1	19145.5	35664.6	32.4674	102.231
13	63095.7	33544.7	19141.1	38621.6	29.7097	106.846
14	50118.7	36937.1	18962.5	41520.1	27.1748	114.091
15	39810.7	40266.6	18598.3	44354.2	24.7912	116.816
16	31622.8	43290.2	18176.8	46951.5	22.7767	125.351
17	25118.9	46175	17673.1	49441.6	20.944	128.941
18	19952.6	48880	17164.2	51806.1	19.3487	131.561
19	15848.9	51493.6	16608.9	54105.9	17.8767	139.691
20	12589.3	53953.5	16077.6	56298	16.5935	150.197
21	10000	56309.7	15521.8	58409.8	15.4109	158.517
22	7943.28	58622.9	15008.6	60513.6	14.3604	164.832
23	6309.57	60847.5	14385.6	62524.9	13.3017	171.417
24	5011.87	62875.5	13788.1	64369.6	12.3687	183.317
25	3981.07	64779	13251.4	66120.5	11.5611	185.422
26	3162.28	66671.2	12732.5	67876.1	10.8118	187.327
27	2511.89	68406.7	12169.7	69480.8	10.0875	189.152
28	1995.26	69975.5	11737.5	70953.1	9.52196	191.002
29	1584.89	71584.7	11287.7	72469.1	8.96084	192.732
30	1258.93	73020.5	10993.1	73843.4	8.56149	194.482
31	1000	74435.3	10784.3	75212.5	8.24372	196.567
32	794.328	75882.2	10461.2	76599.9	7.84941	198.748
33	630.957	77204.9	10406.8	77903.2	7.67691	200.773
34	501.187	78586.6	10417.8	79274.1	7.55139	202.568
35	398.107	79967.1	10518.3	80655.8	7.49323	204.368
36	316.228	81370.8	10702.5	82071.6	7.49295	206.388
37	251.189	82827.7	10956.1	83549.2	7.53513	208.418
38	199.526	84317.2	11280.221	85068.4	7.61996	210.473
39	158.489	85867.4	11658.9	86655.3	7.73219	212.513
40	125.893	87504.5	12099.5	88337	7.87255	214.583
41	100	89202.3	12597.4	90087.5	8.0383	216.658
42	79.4328	90996.2	13200.4	91948.7	8.25404	218.663
43	63.0957	92915.3	13763.2	93929.1	8.42573	220.873
44	50.1187	94907.2	14341.3	95984.7	8.59288	222.968
45	39.8107	97034.5	14949.5	98179.3	8.75835	232.878
46	31.6228	99244.8	15561.5	100457	8.91135	235.118
47	25.1189	101585	16187.5	102867	9.0539	237.403
48	19.9526	104011	16795.9	105358	9.17304	240.178
49	15.8489	106549	17398.2	107960	9.27385	242.818
50	12.5893	109181	17990	110653	9.35669	245.613
51	10	111926	18572.6	113456	9.42162	248.413
52	7.94328	114684.361	19221.1	116284	9.51436	251.448
53	6.30957	117561	19740.2	119206.653	9.53188	254.614
54	5.01187	120531	20252.3	122220.846	9.53806	257.674
55	3.98107	123587	20759.7	125319	9.53527	260.859
56	3.16228	126611	21241.9	128380	9.52401	264.019
57	2.51189	129762.828	21756.5	131574	9.5179	267.284
58	1.99526	132813	22276.6	134669	9.52152	270.804
59	1.58489	135997	22829.9	137900	9.52941	274.104
60	1.25893	139108	23432.1	141068	9.56142	277.494
61	1	142252	24128.8	144284	9.62688	283.879
62	0.794328	145375	25084.9	147523	9.79014	287.824
63	0.630957	148418	26115.9	150698	9.9797	291.909
64	0.501187	151361	27441.5	153829	10.276	296.484
65	0.398107	154296	29239	157042.353	10.7302	301.444
66	0.316228	157174	31509.4	160301.164	11.3361	306.685
67	0.251189	159939	34565	163632	12.1948	312.8
68	0.199526	162823	38502.8	167313	13.3044	319.5
69	0.158489	165893	43419.8	171481.12	14.6672	327.295
70	0.125893	169237	49484.6	176324	16.2988	336.46
71	0.1	173043	56798	182126	18.1714	347.15

File: Z_beam2_20241212.txt
Index	Frequency (Hz)	Z' (Ω)	-Z'' (Ω)	Z (Ω)	-Phase (°)	Time (s)
1	1000000	5284.24	8402.75	9926.2	57.8354	53.0448
2	794328.25	6569.19	9528.51	11573.5	55.4167	63.39
3	630957.375	8073.45	10783.9	13471.2	53.1793	68.7951
4	501187	9811.15	12151.8	15618.122	51.0833	71.5051
5	398107	11816.6	13540.4	17971.5	48.889	80.0953
6	316228	14184.5	15036.9	20671.5	46.6709	82.2803
7	251189	16922.1	16571	23684.5	44.3995	88.9605
8	199526	19925	17932.3	26806.2	41.9869	91.1255
9	158489	23089.772	19318.1	30105.2	39.9175	93.5056
10	125893	26787.1	20224.6	33564.6	37.0532	95.1406
11	100000	30657.3	21138.7	37238.6	34.5869	96.8706
12	79432.8	34311.1	21704.2	40599.6	32.3162	102.231
13	63095.7	38362.6	21643.6	44047	29.4311	106.846
14	50118.7	42295.5	21297.4	47355	26.727	114.091
15	39810.7	46113.3	20745.2	50564.8	24.2218	116.816
16	31622.8	49432.2	20199.4	53399.9	22.2263	125.351
17	25118.9	52591.6	19532.5	56101.656	20.375	128.941
18	19952.6	55566.5	18854.6	58678.2	18.7429	131.561
19	15848.9	58311.2	18218	61090.8	17.3502	139.691
20	12589.3	61083.8	17519.9	63546.6	16.0038	150.197
21	10000	63537.8	17044.4	65784.2	15.0164	158.517
22	7943.28	65994	16447.7	68012.8	13.9947	164.832
23	6309.57	68386.9	15846	70198.7	13.0458	171.417
24	5011.87	70647.2	15279.4	72280.7	12.2038	183.317
25	3981.07	72812	14724.8	74286	11.4327	185.422
26	3162.28	74851.3	14106.5	76168.9	10.6728	187.327
27	2511.89	76789.3	13540	77973.9	9.99998	189.152
28	1995.26	78594.144	13036.4	79668	9.41787	191.002
29	1584.89	80326.2	12659.6	81317.7	8.9563	192.732
30	1258.93	81935.1	12268.9	82848.6	8.51613	194.482
31	1000	83530.8	11955.9	84382.1	8.1455	196.567
32	794.328	85122	11732.7	85926.8	7.84785	198.748
33	630.957	86687.8	11651.8	87467.4	7.65529	200.773
34	501.187	88198	11623.1	88960.6	7.50739	202.568
35	398.107	89747.8	11726.4	90510.7	7.44408	204.368
36	316.228	91324.2	11919.7	92098.8	7.43627	206.388
37	251.189	92923.5	12188.5	93719.4	7.47265	208.418
38	199.526	94592.794	12531.2	95419.2	7.54632	210.473
39	158.489	96305	12939.6	97170.4	7.65244	212.513
40	125.893	98108	13411	99020.3	7.78387	214.583
41	100	100006.557	13961	100976	7.94717	216.658
42	79.4328	101969	14635.6	103013.879	8.16789	218.663
43	63.0957	104077	15257.1	105189	8.33987	220.873
44	50.1187	106281	15909.3	107465	8.51345	222.968
45	39.8107	108630	16598.7	109890	8.68766	232.878
46	31.6228	111069	17293	112407.042	8.84968	235.118
47	25.1189	113669	18011.6	115087.361	9.00402	237.403
48	19.9526	116359	18711.2	117854	9.13529	240.178
49	15.8489	119182	19425.4	120755	9.25717	242.818
50	12.5893	122119	20109.4	123763	9.35103	245.613
51	10	125183	20795.2	126899	9.43172	248.413
52	7.94328	128272	21578.9	130075	9.5493	251.448
53	6.30957	131489.773	22195.4	133350	9.58117	254.614
54	5.01187	134822	22805.8	136736.942	9.60101	257.674
55	3.98107	138282	23400.9	140248	9.60495	260.859
56	3.16228	141717	23977.8	143731	9.60321	264.019
57	2.51189	145260	24575.9	147324	9.60273	267.284
58	1.99526	148744	25168.1	150858	9.60373	270.804
59	1.58489	152371	25808.3	154542	9.61339	274.104
60	1.25893	155926	26493.3	158160	9.643	277.494
61	1	159534	27260.2	161846	9.69671	283.879
62	0.794328	163102	28393.5	165555	9.87533	287.824
63	0.630957	166629	29446.1	169211	10.0216	291.909
64	0.501187	170101	30791.5	172865	10.2605	296.484
65	0.398107	173543	32561.3	176572	10.6267	301.444
66	0.316228	176887	34825	180283	11.1377	306.685
67	0.251189	180109	37860.5	184046	11.8712	312.8
68	0.199526	183432	41792.5	188133	12.835	319.5
69	0.158489	186851	46796.4	192622	14.0604	327.295
70	0.125893	190526	52980.4	197755	15.5399	336.46
71	0.1	194645	60527.6	203838	17.2739	347.15

File: Z_beam2_20241219.txt
Index	Frequency (Hz)	Z' (Ω)	-Z'' (Ω)	Z (Ω)	-Phase (°)	Time (s)
1	1000000	5339.26	8384.99	9940.61	57.5125	53.0448
2	794328.25	6640.85	9507.93	11597.5	55.0675	63.39
3	630957.375	8093.15	10736.8	13445.4	52.9919	68.7951
4	501187	9862.43	12093.8	15605.4	50.803	71.5051
5	398107	11865.6	13451.7	17937.1	48.5847	80.0953
6	316228	14224.7	14970.7	20651	46.4638	82.2803
7	251189	16879	16391.8	23528.5	44.161	88.9605
8	199526	19755.4	17845.9	26622.4	42.0929	91.1255
9	158489	23100	19182.5	30026.3	39.7066	93.5056
10	125893	26589	20268	33433	37.3172	95.1406
11	100000	30428	21051.4	37000.4	34.6771	96.8706
12	79432.8	34186	21569	40421.6	32.2491	102.231
13	63095.7	38158.5	21500.3	43798.8	29.399	106.846
14	50118.7	42012.8	21187.6	47053.1	26.7624	114.091
15	39810.7	45778.8	20660.5	50225.1	24.2902	116.816
16	31622.8	49113.3	20076.1	53058.1	22.2334	125.351
17	25118.9	52293	19441.2	55790	20.3939	128.941
18	19952.6	55236.3	18780.8	58341.8	18.7785	131.561
19	15848.9	58050.6	18147.1	60821	17.3597	139.691
20	12589.3	60656.2	17550.1	63144.2	16.1372	150.197
21	10000	63220.6	17004.9	65467.7	15.0549	158.517
22	7943.28	65730.8	16478.7	67765	14.074	164.832
23	6309.57	68081.6	15873.8	69907.7	13.1245	171.417
24	5011.87	70334.4	15295.5	71978.3	12.269	183.317
25	3981.07	72531.5	14857	74037.5	11.5761	185.422
26	3162.28	74628.2	14268.8	75980	10.8243	187.327
27	2511.89	76605.7	13694.2	77820.1	10.1353	189.152
28	1995.26	78451.5	13211.3	79556.2	9.559	191.002
29	1584.89	80215.5	12777	81226.7	9.05023	192.732
30	1258.93	81899.7	12466.5	82843.1	8.65496	194.482
31	1000	83526.3	12167.4	84407.9	8.28806	196.567
32	794.328	85151.3	11891.5	85977.6	7.95001	198.748
33	630.957	86716.1	11736.7	87506.8	7.70792	200.773
34	501.187	88271.5	11763.1	89051.9	7.59051	202.568
35	398.107	89837.5	11849.1	90615.6	7.51365	204.368
36	316.228	91434.4	12021.8	92221.3	7.49032	206.388
37	251.189	93056.6	12277.7	93863.1	7.51608	208.418
38	199.526	94719.5	12610.9	95555.3	7.58372	210.473
39	158.489	96440.5	13000.9	97312.8	7.6776	212.513
40	125.893	98242.8	13478.2	99163.1	7.8118	214.583
41	100	100139	14001.8	101113	7.95971	216.658
42	79.4328	102110	14673.8	103159	8.17774	218.663
43	63.0957	104222	15295.1	105339	8.34884	220.873
44	50.1187	106429	15942.2	107617	8.51906	222.968
45	39.8107	108781	16630.3	110044	8.69204	232.878
46	31.6228	111220	17326.3	112562	8.85458	235.118
47	25.1189	113816	18041.59	115237	9.00731	237.403
48	19.9526	116517	18736.4	118013	9.13521	240.178
49	15.8489	119345	19451.1	120919	9.25683	242.818
50	12.5893	122288	20141.5	123936	9.35291	245.613
51	10	125357	20820.73	127074	9.43025	248.413
52	7.94328	128460	21618.3	130266	9.55274	251.448
53	6.30957	131684	22222.4	133546	9.57875	254.614
54	5.01187	135038.219	22818.8	136953	9.59124	257.674
55	3.98107	138498	23400.4	140461	9.59002	260.859
56	3.16228	141944	23966.5	143953	9.58369	264.019
57	2.51189	145494.126	24541.9	147549	9.57452	267.284
58	1.99526	148972	25103.1	151072	9.56499	270.804
59	1.58489	152605	25714.9	154756	9.56485	274.104
60	1.25893	156160	26351.9	158368	9.57841	277.494
61	1	159764	27070.5	162041	9.6169	283.879
62	0.794328	163322	28117.6	165725	9.7683	287.824
63	0.630957	166835	29119	169357	9.90055	291.909
64	0.501187	170256	30395.9	172948	10.1224	296.484
65	0.398107	173659.595	32102.7	176602	10.4735	301.444
66	0.316228	176984	34284	180274	10.9631	306.685
67	0.251189	180149	37247	183959	11.6817	312.8
68	0.199526	183405	41095.6	187952	12.6297	319.5
69	0.158489	186782	45972.2	192357	13.8272	327.295
70	0.125893	190424	52059.2	197412	15.2902	336.46
71	0.1	194512	59498.5	203408	17.0082	347.15

File: Z_beam3_20241120.txt
Index	Frequency (Hz)	Z' (Ω)	-Z'' (Ω)	Z (Ω)	-Phase (°)	Time (s)
1	1000000	4835	8184.45	9505.91	59.4274	53.0448
2	794328.25	6144.21	9327.07	11168.9	56.6251	63.39
3	630957.375	7612.64	10505.8	12974	54.0725	68.7951
4	501187	9311.61	11783.4	15018.5	51.6831	71.5051
5	398107	11193.2	13063.2	17202.8	49.4083	80.0953
6	316228	13413.4	14547.1	19787.3	47.3219	82.2803
7	251189	15939.4	15984	22573.2	45.08	88.9605
8	199526	18714.6	17361.3	25527.5	42.8517	91.1255
9	158489	21959.7	18657.7	28815.6	40.3524	93.5056
10	125893	25193.9	19819.3	32055.2	38.1911	95.1406
11	100000	29079	20881.4	35799.7	35.6818	96.8706
12	79432.8	32605.9	21449.1	39028.3	33.338	102.231
13	63095.7	36542.9	21571.6	42434.814	30.5537	106.846
14	50118.7	40429	21482.3	45782	27.9843	114.091
15	39810.7	44364.8	21095.6	49124.9	25.4313	116.816
16	31622.8	47885.1	20611.3	52132.5	23.2886	125.351
17	25118.9	51263.995	20001	55027.6	21.3136	128.941
18	19952.6	54481.6	19266	57787.7	19.4748	131.561
19	15848.9	57412.4	18471.3	60310.6	17.8345	139.691
20	12589.3	60189.4	17621.3	62715.8	16.3182	150.197
21	10000	62801.8	16835.4	65019.2	15.0066	158.517
22	7943.28	65201.6	16001.6	67136.5	13.7889	164.832
23	6309.57	67378.5	15201.1	69072	12.7135	171.417
24	5011.87	69500.3	14467.3	70990.1	11.7588	183.317
25	3981.07	71415.1	13961.3	72767	11.0615	185.422
26	3162.28	73241.7	13359.6	74450.2	10.3374	187.327
27	2511.89	74975.6	12823.4	76064.3	9.70562	189.152
28	1995.26	76675.6	12363.7	77666	9.15996	191.002
29	1584.89	78292.9	12010	79208.7	8.7211	192.732
30	1258.93	79847.3	11728.6	80704.1	8.35627	194.482
31	1000	81411.6	11573.7	82230.1	8.09114	196.567
32	794.328	82944.1	11331	83714.5	7.77902	198.748
33	630.957	84466.1	11245	85211.4	7.58323	200.773
34	501.187	85974.6	11241.1	86706.4	7.44908	202.568
35	398.107	87483.3	11334.8	88214.6	7.38238	204.368
36	316.228	89003.9	11509.5	89744.9	7.36828	206.388
37	251.189	90569.4	11750.3	91328.4	7.39213	208.418
38	199.526	92157.1	12061.4	92943	7.4564	210.473
39	158.489	93818.4	12459.2	94642	7.56467	212.513
40	125.893	95523.8	12915.1	96392.9	7.69986	214.583
41	100	97341	13428.6	98262.9	7.8546	216.658
42	79.4328	99217.6	14084.2	100212	8.07928	218.663
43	63.0957	101232	14697.7	102293	8.26098	220.873
44	50.1187	103331	15339.3	104463	8.44383	222.968
45	39.8107	105575	16033.3	106785	8.63534	232.878
46	31.6228	107904	16743.7	109196	8.82035	235.118
47	25.1189	110394	17485.1	111770	9.0002	237.403
48	19.9526	112979	18224.4	114440	9.16333	240.178
49	15.8489	115702	18996.1	117251	9.32372	242.818
50	12.5893	118543	19763.7	120179	9.46542	245.613
51	10	121526	20539.7	123249.807	9.59315	248.413
52	7.94328	124544	21428.9	126374	9.76262	251.448
53	6.30957	127711	22177.1	129622	9.85124	254.614
54	5.01187	131025	22913.9	133014	9.91964	257.674
55	3.98107	134476	23671.5	136543.802	9.98335	260.859
56	3.16228	137929	24410.7	140072.845	10.0363	264.019
57	2.51189	141538	25193.4	143762	10.0928	267.284
58	1.99526	145059	25973.7	147366	10.1516	270.804
59	1.58489	148777	26826.1	151176.497	10.2212	274.104
60	1.25893	152438	27729.6	154939	10.3098	277.494
61	1	156175	28751.8	158799	10.4314	283.879
62	0.794328	159907	30104.8	162716	10.6619	287.824
63	0.630957	163612.342	31496.1	166616	10.8964	291.909
64	0.501187	167266	33217.9	170532	11.2324	296.484
65	0.398107	170988	35447.464	174624	11.7121	301.444
66	0.316228	174726	38186.9	178850	12.3283	306.685
67	0.251189	178453	41728.4	183267.063	13.1612	312.8
68	0.199526	182358	46126.2	188101.072	14.1949	319.5
69	0.158489	186591	51486.6	193564	15.4259	327.295
70	0.125893	191240	57947.4	199827	16.8573	336.46
71	0.1	196471.946	65578.8	207127	18.4581	347.15

File: Z_beam3_20241129.txt
Index	Frequency (Hz)	Z' (Ω)	-Z'' (Ω)	Z (Ω)	-Phase (°)	Time (s)
1	1000000	4933.28	8335.17	9685.67	59.3803	53.0448
2	794328.25	6224.18	9431.22	11299.9	56.577	63.39
3	630957.375	7682.27	10618.7	13106.2	54.1155	68.7951
4	501187	9361.62	11944.2	15175.8	51.9114	71.5051
5	398107	11323.3	13320	17482.6	49.6323	80.0953
6	316228	13577.2	14754.6	20050.9	47.3796	82.2803
7	251189	16165.9	16238.4	22913.4	45.1282	88.9605
8	199526	18885.2	17719.8	25896.7	43.1765	91.1255
9	158489	22106.4	18939	29109.7	40.5873	93.5056
10	125893	25589.4	20240.7	32626.7	38.3432	95.1406
11	100000	29072.4	21255.1	36013.6	36.1709	96.8706
12	79432.8	33089	22055.295	39765.8	33.6852	102.231
13	63095.7	37142.8	22266.7	43305.8	30.9422	106.846
14	50118.7	41164.5	22233	46784.9	28.3735	114.091
15	39810.7	45228.9	21920.6	50261	25.8576	116.816
16	31622.8	48919.9	21496.7	53434.6	23.722	125.351
17	25118.9	52497.3	20908.1	56507.7	21.7159	128.941
18	19952.6	55863.6	20188.5	59399.7	19.8693	131.561
19	15848.9	58982	19401.8	62091.1	18.2083	139.691
20	12589.3	61904.4	18598.1	64637.8	16.722	150.197
21	10000	64676.2	17791.3	67078.6	15.3807	158.517
22	7943.28	67187.6	16957.8	69294.6	14.1653	164.832
23	6309.57	69618.4	16058.2	71446.4	12.9887	171.417
24	5011.87	71749.7	15481.8	73401	12.1763	183.317
25	3981.07	73854.8	14725.1	75308.4	11.2757	185.422
26	3162.28	75788.7	14086.2	77086.6	10.5289	187.327
27	2511.89	77660.9	13492	78824.2	9.85564	189.152
28	1995.26	79407.2	13013	80466.4	9.30676	191.002
29	1584.89	81101.6	12661.3	82084	8.8732	192.732
30	1258.93	82731.3	12336.6	83646	8.48126	194.482
31	1000	84412.1	12132.3	85279.5	8.17898	196.567
32	794.328	86045.3	11815.3	86852.7	7.81868	198.748
33	630.957	87602.5	11752	88387.3	7.64068	200.773
34	501.187	89168.1	11751.3	89939.1	7.50763	202.568
35	398.107	90748.5	11834.1	91516.8	7.42975	204.368
36	316.228	92340.1	11994.5	93115.9	7.40096	206.388
37	251.189	93954.3	12221.9	94745.9	7.4116	208.418
38	199.526	95621.4	12553	96441.8	7.47892	210.473
39	158.489	97334.8	12928.5	98189.7	7.566	212.513
40	125.893	99099.3	13391.5	100000	7.69586	214.583
41	100	100978	13919.7	101933	7.84867	216.658
42	79.4328	102920	14596.2	103950	8.07191	218.663
43	63.0957	105007	15224.4	106105.286	8.24948	220.873
44	50.1187	107174.589	15890.1	108346	8.43344	222.968
45	39.8107	109495	16601.4	110747	8.62141	232.878
46	31.6228	111906.786	17344.1	113243	8.81001	235.118
47	25.1189	114475	18113.5	115899	8.99139	237.403
48	19.9526	117152	18899.5	118666	9.16428	240.178
49	15.8489	119972	19694.8	121578	9.3226	242.818
50	12.5893	122914	20509.9	124614	9.47327	245.613
51	10	126001	21312.6	127790	9.60052	248.413
52	7.94328	129138	22268.9	131044	9.78398	251.448
53	6.30957	132432	23045.8	134422	9.87174	254.614
54	5.01187	135882	23826.6	137955	9.94555	257.674
55	3.98107	139461	24625.9	141618	10.014	260.859
56	3.16228	143071	25400.4	145309	10.0672	264.019
57	2.51189	146815	26204.4	149136	10.1199	267.284
58	1.99526	150498	27039.6	152907	10.1856	270.804
59	1.58489	154382	27931.9	156888.313	10.2554	274.104
60	1.25893	158207	28854.3	160817	10.3362	277.494
61	1	162123	29902.7	164858	10.4504	283.879
62	0.794328	166017	31302.8	168942	10.6779	287.824
63	0.630957	169902	32714.3	173023	10.8988	291.909
64	0.501187	173743	34437.7	177123	11.2113	296.484
65	0.398107	177643	36660.2	181387	11.6604	301.444
66	0.316228	181552.992	39403.9	185780	12.2454	306.685
67	0.251189	185434	42938.4	190340	13.0374	312.8
68	0.199526	189501	47355.7	195328.463	14.0307	319.5
69	0.158489	193841	52784.8	200898.975	15.2329	327.295
70	0.125893	198613	59306.2	207279	16.6257	336.46
71	0.1	204051	67039.4	214782	18.1875	347.15

File: Z_beam3_20241205.txt
Index	Frequency (Hz)	Z' (Ω)	-Z'' (Ω)	Z (Ω)	-Phase (°)	Time (s)
1	1000000	4360.87	8202.08	9289.31	62.0014	53.0448
2	794328.25	5602.74	9359.92	10908.7	59.0958	63.39
3	630957.375	7008.26	10632.11	12734.1	56.6087	68.7951
4	501187	8692.61	11981.7	14802.8	54.0394	71.5051
5	398107	10595.4	13534.5	17188.5	51.9446	80.0953
6	316228	12839.1	15114.1	19831.2	49.6529	82.2803
7	251189	15199.5	16753.3	22620.7	47.784	88.9605
8	199526	18115.4	18523.1	25909	45.6375	91.1255
9	158489	21425.7	20215.7	29457.3	43.3356	93.5056
10	125893	25140.3	21654.4	33180.5	40.7398	95.1406
11	100000	28967.8	23208.5	37118.3	38.7011	96.8706
12	79432.8	33095.9	24319.8	41070.5	36.3094	102.231
13	63095.7	37605	24834.5	45065.3	33.441	106.846
14	50118.7	42180.8	25095.4	49081.6	30.7505	114.091
15	39810.7	46848.3	25012.9	53107.5	28.0983	116.816
16	31622.8	51214.3	24743.4	56878.3	25.7867	125.351
17	25118.9	55418.4	24201.3	60472.4	23.591	128.941
18	19952.6	59427	23505.1	63906.6	21.5803	131.561
19	15848.9	63208.4	22609.8	67130.5	19.6823	139.691
20	12589.3	66683.2	21661.6	70113.3	17.996	150.197
21	10000	69978.1	20653.7	72962.4	16.4437	158.517
22	7943.28	72892.4	19899.5	75559.9	15.2696	164.832
23	6309.57	75708.427	18770.3	78000.6	13.9245	171.417
24	5011.87	78291	17743.7	80276.5	12.7697	183.317
25	3981.07	80693.8	16792.5	82422.6	11.7556	185.422
26	3162.28	82899.8	15934.1	84417.2	10.8801	187.327
27	2511.89	84983.1	15204.4	86332.5	10.1435	189.152
28	1995.26	86926.7	14559.6	88137.6	9.50839	191.002
29	1584.89	88809.7	14038	89912.4	8.98232	192.732
30	1258.93	90645.8	13656.1	91668.7	8.56735	194.482
31	1000	92398	13365.9	93359.8	8.23105	196.567
32	794.328	94185.2	13006	95078.9	7.86223	198.748
33	630.957	95966.8	12951.7	96836.9	7.6862	200.773
34	501.187	97593.8	12884.9	98440.7	7.521	202.568
35	398.107	99303.4	12943.2	100143	7.42605	204.368
36	316.228	101045	13107.5	101892	7.39113	206.388
37	251.189	102812	13341.5	103674	7.39378	208.418
38	199.526	104614	13667.1	105503	7.44319	210.473
39	158.489	106472	14071.8	107397.922	7.5288	212.513
40	125.893	108413	14568.2	109388	7.65339	214.583
41	100	110449	15125.4	111480.335	7.79784	216.658
42	79.4328	112546	15836.2	113655	8.00942	218.663
43	63.0957	114801	16508.8	115982	8.18323	220.873
44	50.1187	117150	17223.9	118409	8.36397	222.968
45	39.8107	119653	17996.9	120999	8.55367	232.878
46	31.6228	122268	18799.5	123705	8.74115	235.118
47	25.1189	125045	19644.6	126579	8.92822	237.403
48	19.9526	127934.005	20489.2	129564	9.09892	240.178
49	15.8489	130978	21364.4	132709	9.26417	242.818
50	12.5893	134166	22248.2	135998	9.41548	245.613
51	10	137518	23157.3	139455	9.55858	248.413
52	7.94328	140910	24187.1	142971	9.73986	251.448
53	6.30957	144483	25065.3	146641	9.84189	254.614
54	5.01187	148219	25963.1	150476	9.93556	257.674
55	3.98107	152123	26865.1	154477	10.0152	260.859
56	3.16228	156034	27761.8	158485	10.0886	264.019
57	2.51189	160135.965	28717.5	162691	10.1669	267.284
58	1.99526	164160	29662.2	166818.135	10.2423	270.804
59	1.58489	168408	30710.5	171186	10.3347	274.104
60	1.25893	172622	31787.7	175525	10.4339	277.494
61	1	176948	33009.6	180001	10.567	283.879
62	0.794328	181251	34684.2	184539	10.8332	287.824
63	0.630957	185592	36260.7	189101.353	11.0551	291.909
64	0.501187	189900	38193.7	193702	11.3719	296.484
65	0.398107	194299.553	40629.1	198502	11.8107	301.444
66	0.316228	198682	43606.9	203412	12.379	306.685
67	0.251189	203016	47439.2	208485	13.1525	312.8
68	0.199526	207549	52222.7	214018	14.1234	319.5
69	0.158489	212358	58074.8	220156	15.295	327.295
70	0.125893	217612	65184	227165	16.6752	336.46
71	0.1	223454	73632.8	235273	18.2381	347.15