Folder: Streamlit_cement_impedance/data/plate_beam

Note: README.md
# Software KDssZ version 1.0

This software tool works to analyze impedance measurements through a lumped circuital model.

## The repository contains:

- The Python module called [KDssZ.py](https://github.com/dantrica/Streamlit_cement_impedance/blob/c79735cefb679f8cb21de758db89e5011d7d15d4/KDssZ.py) contains the algorithms to optimize the electrical impedance measurements.
- The Python module called [appZ.py](https://github.com/dantrica/Streamlit_cement_impedance/blob/b421c1652a15b18d4e0220819822e362abc5bec6/appZ.py) contains the code to deploy the application on the Streamlit platform.
- All [data](https://github.com/dantrica/Streamlit_cement_impedance/tree/c79735cefb679f8cb21de758db89e5011d7d15d4/data) acquired during the experimental campaign is located in this repository Streamlit_cement_impedance/data/.
- The [Figures](https://github.com/dantrica/Streamlit_cement_impedance/tree/c79735cefb679f8cb21de758db89e5011d7d15d4/figures) folder contains an image describing the lumped circuit model.

## The left sidebar functionalities:

The user can upload the impedance measurements in format .txt. Moreover, this object contains the elements that will be presented in the left sidebar, such as i) the uploading file option, ii) the lumped circuit model, iii) Add and Remove buttons to move data in the Optimization zone, iv) Run and Reset buttons to start and clear the optimization.

## Project Description: 

$\texttt{KDssZ}$ has been developed to optimize experimental electrical impedance data to a lumped circuit model. This approach allows users to correlate the interactions among the components in the composite-electrodes, cement, nanoparticles, and pores with the measured impedance, which is analyzed across three frequency ranges: high, medium, and low. Although the software has been validated with impedance measurements from gold nanoparticles/cement-based composites, it can also be used to study the electrical properties of other cement-based composites. KDssZ is deployed on the Streamlit platform, and in line with the principles of open science, it allows researchers working on similar studies to use this tool to explore new research questions related to cement-based composites.

## Usage instructions:

The main functionalities of the software KDssZ are displayed in Figure~\ref{}, and enumerated according to the following list:

1. Push button \texttt{Browse Files} to upload \texttt{.txt} files with electrical impedance spectroscopy data.
2. Help menu explaining the format files to be received; help hints boxes to report whether a file was added previously or it is already in the optimization zone; and help tips on buttons.
3. Choosing the file data since Select tag.
4. Buttons $\texttt{Add data}$ and $\texttt{Remove}$, to add or remove data to the optimization zone.
5. Buttons $\texttt{Run}$ and $\texttt{Reset}$, to start the optimization, create the plots and return the DataFrame with the parameters.
6. Figures: wide mode and saving options.
7. T

File: Z_beam1_20241120.txt
Index	Frequency (Hz)	Z' (Ω)	-Z'' (Ω)	Z (Ω)	-Phase (°)	Time (s)
1	1000000	2960.83	7107.63	7699.67	67.3848	53.0448
2	794328.25	4040.22	8214.28	9154.11	63.8096	63.39
3	630957.375	5216.75	9360.16	10715.7	60.8675	68.7951
4	501187	6656.08	10670.4	12576.2	58.0445	71.5051
5	398107	8245.65	12108.3	14649.3	55.7455	80.0953
6	316228	10117.4	13611.6	16959.9	53.3769	82.2803
7	251189	12283.8	15325.4	19640.7	51.2868	88.9605
8	199526	14663.8	17015.6	22462.4	49.2457	91.1255
9	158489	17539.1	18912.4	25793.4	47.1577	93.5056
10	125893	20619.6	20773.9	29269.8	45.2135	95.1406
11	100000	23892.9	22404	32753.7	43.1581	96.8706
12	79432.8	27706.4	24270.2	36833.2	41.2177	102.231
13	63095.7	31956.1	25644.2	40973.4	38.7465	106.846
14	50118.7	36440.89	26889	45287.5	36.4228	114.091
15	39810.7	41256.1	27941.4	49827.6	34.1084	116.816
16	31622.8	46023.9	28816.2	54300.8	32.0512	125.351
17	25118.9	50965.5	29540.7	58907.9	30.0975	128.941
18	19952.6	56017.5	29938.8	63516.1	28.1225	131.561
19	15848.9	61037	30122.6	68065.3	26.267	139.691
20	12589.3	66070.5	30101.2	72604.3	24.4936	150.197
21	10000	71031.3	29767.9	77016.6	22.7376	158.517
22	7943.28	75750.2	29471.2	81281.2	21.2589	164.832
23	6309.57	80444.2	28604.1	85378.4	19.5742	171.417
24	5011.87	84912.1	27637.6	89296.7	18.0293	183.317
25	3981.07	89079.2	26583.4	92961.2	16.6164	185.422
26	3162.28	93031.1	25482.5	96458	15.3184	187.327
27	2511.89	96739.1	24382.7	99764.5	14.1465	189.152
28	1995.26	100172	23281.4	102842	13.0841	191.002
29	1584.89	103373	22299.9	105750.744	12.1735	192.732
30	1258.93	106376	21320	108491	11.3332	194.482
31	1000	109255	20493.7	111160	10.6239	196.567
32	794.328	111900	19850.9	113647	10.0595	198.748
33	630.957	114561	19246.3	116167	9.53663	200.773
34	501.187	117026	18824.3	118530	9.1381	202.568
35	398.107	119443	18565.8	120877	8.83514	204.368
36	316.228	121841	18503.1	123238	8.63513	206.388
37	251.189	124259	18571.5	125639	8.50039	208.418
38	199.526	126686	18800.2	128073.071	8.4411	210.473
39	158.489	129128	19157.1	130541	8.43873	212.513
40	125.893	131646	19643.5	133103	8.48675	214.583
41	100	134308	20309.8	135835	8.599	216.658
42	79.4328	137016	21199.3	138647	8.79512	218.663
43	63.0957	139918	22091.5	141651.125	8.97233	220.873
44	50.1187	142953	23090.2	144806	9.17532	222.968
45	39.8107	146185	24220.8	148177	9.40767	232.878
46	31.6228	149579	25444.1	151728	9.65386	235.118
47	25.1189	153237	26795.2	155562	9.91853	237.403
48	19.9526	157060	28194.8	159571	10.1771	240.178
49	15.8489	161169	29717.1	163886	10.4471	242.818
50	12.5893	165514	31299.9	168448	10.7086	245.613
51	10	170167	32971	173331	10.9656	248.413
52	7.94328	174964	34874.8	178406	11.2728	251.448
53	6.30957	180123	36584.1	183801	11.4809	254.614
54	5.01187	185627	38288.8	189535	11.6548	257.674
55	3.98107	191498	40040.6	195639	11.8099	260.859
56	3.16228	197523	41748.5	201887	11.9344	264.019
57	2.51189	203900	43465.7	208481	12.0337	267.284
58	1.99526	210361	45053.6	215131	12.0886	270.804
59	1.58489	217281	46631.6	222229	12.1127	274.104
60	1.25893	224251	48068.9	229345	12.0985	277.494
61	1	231491	49436.9	236711	12.0549	283.879
62	0.794328	238712	51292.5	244160	12.1269	287.824
63	0.630957	246084	52477.7	251617	12.0381	291.909
64	0.501187	253431	53743.1	259067	11.9729	296.484
65	0.398107	260821	55195.7	266598	11.9488	301.444
66	0.316228	268024	56882.837	273994	11.9821	306.685
67	0.251189	275072	59170.2	281364	12.1398	312.8
68	0.199526	282067	62156.5	288834	12.4271	319.5
69	0.158489	289114	65495.6	296440	12.7643	327.295
70	0.125893	296022	70571.8	304318	13.4091	336.46
71	0.1	303339	77015.5	312963	14.246	347.15

File: Z_beam1_20241129.txt
Index	Frequency (Hz)	Z' (Ω)	-Z'' (Ω)	Z (Ω)	-Phase (°)	Time (s)
1	1000000	3063.62	7260.7	7880.58	67.1229	53.0448
2	794328.25	4125.4	8411.3	9368.5	63.8739	63.39
3	630957.375	5580.93	9772.33	11253.7	60.2695	68.7951
4	501187	6900.75	10973.2	12962.7	57.8354	71.5051
5	398107	8524.63	12471.3	15106.4	55.6459	80.0953
6	316228	10481.2	14088.6	17559.7	53.3527	82.2803
7	251189	12662.1	15722.7	20187.5	51.1541	88.9605
8	199526	15154.3	17580	23210.1	49.2381	91.1255
9	158489	17955.5	19513.2	26517.2	47.3806	93.5056
10	125893	20979.7	21374	29949.9	45.5334	95.1406
11	100000	24671.7	23072.5	33779.2	43.0816	96.8706
12	79432.8	28623.2	25109.1	38075.7	41.2581	102.231
13	63095.7	33007.5	26514.4	42338.1	38.7744	106.846
14	50118.7	37623.3	27802.4	46781.3	36.4632	114.091
15	39810.7	42605.6	28898.9	51481.9	34.1486	116.816
16	31622.8	47520.3	29855.9	56120.9	32.1402	125.351
17	25118.9	52686.8	30550.7	60903.5	30.1075	128.941
18	19952.6	57862.3	31016	65650.9	28.1927	131.561
19	15848.9	63103.8	31262.1	70423.1	26.3542	139.691
20	12589.3	68251.1	31208.2	75047.8	24.5725	150.197
21	10000	73443.5	30895.566	79677.3	22.8151	158.517
22	7943.28	78347.5	30667.7	84135.8	21.3769	164.832
23	6309.57	83258.1	29779.4	88423.6	19.6809	171.417
24	5011.87	87903	28845.4	92514.9	18.1673	183.317
25	3981.07	92264.8	27754.2	96348.8	16.7418	185.422
26	3162.28	96433.8	26593.4	100033	15.4172	187.327
27	2511.89	100305	25469.8	103488	14.2476	189.152
28	1995.26	103925	24355.9	106741.08	13.1898	191.002
29	1584.89	107330	23355.9	109842	12.2766	192.732
30	1258.93	110513	22366.5	112753	11.4415	194.482
31	1000	113555	21539.9	115579.889	10.7407	196.567
32	794.328	116368	20816.1	118215	10.1419	198.748
33	630.957	119043	20232.6	120750	9.64585	200.773
34	501.187	121700	19754.9	123293	9.22006	202.568
35	398.107	124238	19486.6	125757.02	8.91417	204.368
36	316.228	126766.702	19370.5	128238	8.68785	206.388
37	251.189	129290	19421.5	130740	8.54291	208.418
38	199.526	131815	19641.1	133270	8.475	210.473
39	158.489	134394	19983.7	135871	8.45766	212.513
40	125.893	137025	20493.5	138549	8.50611	214.583
41	100	139801	21152.8	141392	8.60398	216.658
42	79.4328	142603	22060.8	144299	8.79402	218.663
43	63.0957	145625	22975.6	147427	8.96577	220.873
44	50.1187	148769	23999.3	150692	9.16397	222.968
45	39.8107	152130.926	25164	154198	9.39227	232.878
46	31.6228	155658	26433	157886	9.63773	235.118
47	25.1189	159431	27831.1	161842	9.90209	237.403
48	19.9526	163410	29300.7	166016	10.1656	240.178
49	15.8489	167677	30882	170497	10.4356	242.818
50	12.5893	172190	32535.1	175237	10.6998	245.613
51	10	177007	34261	180292	10.9546	248.413
52	7.94328	181991.576	36289.5	185574	11.277	251.448
53	6.30957	187343	38059.4	191170	11.4836	254.614
54	5.01187	193068	39877.8	197143	11.6702	257.674
55	3.98107	199177	41718.8	203499	11.8299	260.859
56	3.16228	205435	43508.9	209992	11.9579	264.019
57	2.51189	212105	45298.2	216888	12.0552	267.284
58	1.99526	218841.466	47013.7	223834	12.1246	270.804
59	1.58489	226094	48675.3	231274	12.1496	274.104
60	1.25893	233392	50187.4	238727.273	12.1358	277.494
61	1	240983	51601.2	246446	12.0861	283.879
62	0.794328	248591	53482.4	254279	12.1417	287.824
63	0.630957	256330	54658.4	262093	12.0372	291.909
64	0.501187	264044	55909.4	269899	11.9554	296.484
65	0.398107	271845	57300.7	277818	11.9028	301.444
66	0.316228	279417	58929.9	285564	11.9093	306.685
67	0.251189	286973	60339.5	293248	11.8741	312.8
68	0.199526	294154.938	63303.9	300890	12.1452	319.5
69	0.158489	301317	67245.6	308729	12.5807	327.295
70	0.125893	308545	72260.9	316894	13.181	336.46
71	0.1	316042	78655.4	325683	13.9756	347.15

File: Z_beam1_20241205.txt
Index	Frequency (Hz)	Z' (Ω)	-Z'' (Ω)	Z (Ω)	-Phase (°)	Time (s)
1	1000000	2713.11	7098.63	7599.44	69.083	53.0448
2	794328.25	3690.9	8245.28	9033.68	65.8849	63.39
3	630957.375	4889.74	9511.8	10695	62.7936	68.7951
4	501187	6269.5	10925.6	12596.6	60.1511	71.5051
5	398107	7829.61	12423.1	14684.6	57.779	80.0953
6	316228	9662.66	14191.4	17168.6	55.7497	82.2803
7	251189	11755.4	16106.9	19940.4	53.8767	88.9605
8	199526	14278.1	18047.8	23012.8	51.6515	91.1255
9	158489	17165.3	20222.4	26525.3	49.6745	93.5056
10	125893	20457.4	22540.4	30439.7	47.7735	95.1406
11	100000	23839.3	24823.9	34417.1	46.159	96.8706
12	79432.8	27981.6	27035.1	38908.5	44.0144	102.231
13	63095.7	32662.6	28938.9	43638.3	41.5408	106.846
14	50118.7	37695.1	30762.1	48654.2	39.2171	114.091
15	39810.7	43208.7	32379.6	53994.674	36.847	116.816
16	31622.8	48788	33829.1	59369	34.737	125.351
17	25118.9	54679.9	35001.2	64922.8	32.6238	128.941
18	19952.6	60715.7	35858.2	70513.9	30.5658	131.561
19	15848.9	66930.3	36429.1	76202	28.5588	139.691
20	12589.3	73073.8	36636.9	81743.7	26.6278	150.197
21	10000	79167.6	36465.6	87162.2	24.7314	158.517
22	7943.28	85129.1	36195.8	92504.6	23.0346	164.832
23	6309.57	91041.5	35255.9	97629.5	21.169	171.417
24	5011.87	96642	34182.4	102509	19.4787	183.317
25	3981.07	101932	32907.1	107112	17.8919	185.422
26	3162.28	106878	31585.5	111447	16.4639	187.327
27	2511.89	111508	30215.6	115529	15.1615	189.152
28	1995.26	115836	28907	119388	14.012	191.002
29	1584.89	119887	27679.2	123041	13.0005	192.732
30	1258.93	123789	26492.6	126592	12.0799	194.482
31	1000	127181	25412.5	129695	11.2997	196.567
32	794.328	130664	24491.7	132939	10.6164	198.748
33	630.957	133867	23908.8	135985	10.1263	200.773
34	501.187	136951	23173.5	138898	9.60404	202.568
35	398.107	139947.384	22737	141782	9.22813	204.368
36	316.228	142892	22546.8	144659	8.96677	206.388
37	251.189	145800	22502.8	147527	8.77377	208.418
38	199.526	148759	22657.7	150474	8.66028	210.473
39	158.489	151693	23001.5	153427	8.62219	212.513
40	125.893	154727	23485.6	156499	8.6309	214.583
41	100	157867	24149.5	159704	8.69733	216.658
42	79.4328	161071	25097.3	163014	8.85637	218.663
43	63.0957	164486	26068.2	166539	9.00551	220.873
44	50.1187	168028	27165.3	170210	9.18363	222.968
45	39.8107	171816	28432.4	174153	9.39625	232.878
46	31.6228	175773	29831.3	178286.646	9.63217	235.118
47	25.1189	180008	31364.6	182720	9.88403	237.403
48	19.9526	184489	33001.9	187418	10.142	240.178
49	15.8489	189253	34769.2	192421	10.4102	242.818
50	12.5893	194302	36658.7	197729.602	10.6843	245.613
51	10	199711	38615.8	203410	10.9436	248.413
52	7.94328	205290	40885.6	209322	11.2636	251.448
53	6.30957	211292	42937.1	215611	11.4868	254.614
54	5.01187	217725.555	45052	222338	11.6907	257.674
55	3.98107	224588	47227.9	229500	11.8755	260.859
56	3.16228	231645	49358	236845	12.0285	264.019
57	2.51189	239147	51550	244640	12.1644	267.284
58	1.99526	246763	53598.9	252517	12.2548	270.804
59	1.58489	254978	55693.5	260989	12.3213	274.104
60	1.25893	263306	57621.6	269537.245	12.344	277.494
61	1	272002	59467.3	278427	12.3324	283.879
62	0.794328	280708	62015	287477	12.4579	287.824
63	0.630957	290327	61510.4	296771	11.9622	291.909
64	0.501187	299171	63443.7	305824	11.973	296.484
65	0.398107	308223	65518.6	315110	12.0007	301.444
66	0.316228	317119	67713.6	324268	12.0532	306.685
67	0.251189	325853	70378.1	333367	12.1876	312.8
68	0.199526	334529	73710	342553.248	12.426	319.5
69	0.158489	343188.487	77949.1	351930	12.7966	327.295
70	0.125893	351842	83324.2	361574	13.3235	336.46
71	0.1	360683	90292.7	371814	14.0545	347.15

File: Z_beam1_20241212.txt
Index	Frequency (Hz)	Z' (Ω)	-Z'' (Ω)	Z (Ω)	-Phase (°)	Time (s)
1	1000000	2961.02	7772.81	8317.71	69.1459	53.0448
2	794328.25	4189.51	9128.21	10043.7	65.3466	63.39
3	630957.375	5437.9	10504.9	11828.9	62.6316	68.7951
4	501187	6931.85	12074.6	13922.9	60.1405	71.5051
5	398107	8670.04	13849.2	16339.2	57.9521	80.0953
6	316228	11037.2	15934.2	19383.4	55.2906	82.2803
7	251189	13034.2	17908.9	22149.9	53.9526	88.9605
8	199526	15809.1	20201.4	25651.9	51.9542	91.1255
9	158489	18972.4	22655.8	29550.6	50.0566	93.5056
10	125893	22717.3	25127.3	33874.1	47.8837	95.1406
11	100000	26638.1	27732.2	38453.4	46.1529	96.8706
12	79432.8	31290.9	30338.3	43583.6	44.1145	102.231
13	63095.7	36611.1	32415.8	48899.5	41.522	106.846
14	50118.7	42311.9	34409.3	54537.1	39.119	114.091
15	39810.7	48497.2	36189.9	60511.9	36.7313	116.816
16	31622.8	54731.2	37748.8	66486.7	34.5945	125.351
17	25118.9	61291	39085.1	72692.7	32.5256	128.941
18	19952.6	68024	40064.1	78945.5	30.4968	131.561
19	15848.9	74836.7	40752.1	85213.1	28.5704	139.691
20	12589.3	81716.9	41038.8	91443.1	26.6661	150.197
21	10000	88544.2	41071.3	97606	24.8843	158.517
22	7943.28	95360.7	40697.9	103682	23.1118	164.832
23	6309.57	102057	39812.3	109547	21.3108	171.417
24	5011.87	108372	38727.3	115084	19.6645	183.317
25	3981.07	114427	37469.8	120405	18.1314	185.422
26	3162.28	120145	36064.9	125441	16.7086	187.327
27	2511.89	125582	34674.1	130281	15.4352	189.152
28	1995.26	130605	33260.5	134773	14.2876	191.002
29	1584.89	135231	31825.8	138925	13.2433	192.732
30	1258.93	139645.46	30581.6	142955	12.3524	194.482
31	1000	143920	29280.4	146869	11.4998	196.567
32	794.328	147818	28410.5	150524	10.8795	198.748
33	630.957	151688	27387.4	154141	10.2345	200.773
34	501.187	155187	26817.1	157487	9.80417	202.568
35	398.107	158699	26288.8	160862	9.40573	204.368
36	316.228	162129	25973.4	164196	9.10155	206.388
37	251.189	165481	25881.4	167493.042	8.88908	208.418
38	199.526	168908	25934.7	170887	8.72922	210.473
39	158.489	172280	26232.7	174266	8.65782	212.513
40	125.893	175714	26715.1	177733	8.64491	214.583
41	100	179247	27368.5	181324	8.68124	216.658
42	79.4328	182893	28412.4	185087	8.83032	218.663
43	63.0957	186747	29435.8	189052.559	8.95751	220.873
44	50.1187	190722	30611.6	193163	9.11844	222.968
45	39.8107	194962	31992.4	197569	9.31894	232.878
46	31.6228	199410	33513.1	202206	9.54007	235.118
47	25.1189	204136	35202	207149	9.78407	237.403
48	19.9526	209145	37022.5	212397	10.0384	240.178
49	15.8489	214470	39024.5	217991	10.3126	242.818
50	12.5893	220100	41127.4	223910	10.5841	245.613
51	10	226145	43348.3	230262	10.8511	248.413
52	7.94328	232358	45954.5	236858	11.1873	251.448
53	6.30957	239068	48295.7	243897	11.421	254.614
54	5.01187	246268	50722.1	251437	11.6381	257.674
55	3.98107	253946	53257.1	259470.219	11.8443	260.859
56	3.16228	261908	55694	267764	12.005	264.019
57	2.51189	270379	58274.6	276588	12.1628	267.284
58	1.99526	278974	60657.8	285492	12.267	270.804
59	1.58489	288201	62927.6	294991	12.317	274.104
60	1.25893	297628	65280.3	304703	12.3711	277.494
61	1	307541	67480.5	314857	12.3757	283.879
62	0.794328	318408	67916.3	325571	12.0407	287.824
63	0.630957	328617	70165.7	336024	12.0527	291.909
64	0.501187	338877	72345.4	346513	12.0509	296.484
65	0.398107	349388	74477.1	357238	12.0333	301.444
66	0.316228	359774	76756.6	367871	12.0433	306.685
67	0.251189	369893	79435.9	378327	12.1204	312.8
68	0.199526	379941	82586.5	388813	12.2634	319.5
69	0.158489	389834	86648.9	399347	12.5315	327.295
70	0.125893	399708	91965	410151	12.9571	336.46
71	0.1	409918	98716.7	421637	13.5402	347.15

File: Z_beam1_20241219.txt
Index	Frequency (Hz)	Z' (Ω)	-Z'' (Ω)	Z (Ω)	-Phase (°)	Time (s)
1	1000000	3099.97	7785.27	8379.75	68.2883	53.0448
2	794328.25	4246.71	9078.11	10022.3	64.93	63.39
3	630957.375	5523.79	10459.7	11828.7	62.1614	68.7951
4	501187	7092.96	12010.4	13948.4	59.4352	71.5051
5	398107	8796.65	13686.4	16269.6	57.27	80.0953
6	316228	10773.588	15557.3	18923.6	55.2971	82.2803
7	251189	13241.4	17723.2	22123.5	53.2359	88.9605
8	199526	15868.7	19829.4	25397.2	51.331	91.1255
9	158489	18974.9	22190.4	29196.9	49.4664	93.5056
10	125893	22505.6	24620.5	33356.8	47.5695	95.1406
11	100000	26560.4	27185.8	38006.9	45.6667	96.8706
12	79432.8	31055.6	29690.6	42964.9	43.7127	102.231
13	63095.7	36207.5	31736.1	48147.4	41.2348	106.846
14	50118.7	41746.9	33699.1	53651.1	38.9113	114.091
15	39810.7	47768.3	35427.1	59471.8	36.5623	116.816
16	31622.8	53879.9	36997	65359.2	34.4757	125.351
17	25118.9	60250.4	38348.8	71419.5	32.4764	128.941
18	19952.6	66830.7	39331.8	77545.7	30.478	131.561
19	15848.9	73489.7	40051.2	83694.8	28.59	139.691
20	12589.3	80240.8	40455.3	89862.2	26.756	150.197
21	10000	87005.4	40504.4	95971.6	24.9638	158.517
22	7943.28	93686.4	40310.5	101990.58	23.2808	164.832
23	6309.57	100307.89	39496.8	107804	21.4923	171.417
24	5011.87	106601	38550.5	113357.353	19.8817	183.317
25	3981.07	112704	37401.7	118747.875	18.3588	185.422
26	3162.28	118436	36059.5	123804	16.9336	187.327
27	2511.89	123877	34658	128633	15.6305	189.152
28	1995.26	128875	33175.7	133077	14.4359	191.002
29	1584.89	133654	32022.5	137437.009	13.4736	192.732
30	1258.93	138152.799	30554.4	141491	12.471	194.482
31	1000	142217	29337.3	145212	11.6558	196.567
32	794.328	146359	28356.1	149081	10.9648	198.748
33	630.957	150166	27591.8	152679.845	10.4115	200.773
34	501.187	153727	26758.4	156039	9.87419	202.568
35	398.107	157225	26229.3	159398	9.47122	204.368
36	316.228	160619	25889	162691.884	9.15633	206.388
37	251.189	164004	25752	166014	8.92374	208.418
38	199.526	167355	25791	169330.598	8.76089	210.473
39	158.489	170716	26048.1	172692	8.67537	212.513
40	125.893	174136	26494.1	176140	8.65097	214.583
41	100	177646	27147.6	179708	8.68863	216.658
42	79.4328	181245	28174.4	183422	8.83587	218.663
43	63.0957	185066	29178.141	187352	8.9597	220.873
44	50.1187	189005	30330.9	191424	9.11689	222.968
45	39.8107	193211	31683.2	195792	9.31262	232.878
46	31.6228	197592	33192.9	200360	9.53593	235.118
47	25.1189	202272	34871	205256	9.78144	237.403
48	19.9526	207221	36653	210438	10.0306	240.178
49	15.8489	212510	38592	215985	10.2928	242.818
50	12.5893	218082	40670.4	221841	10.5638	245.613
51	10	224077	42862.7	228139	10.8291	248.413
52	7.94328	230205	45469.7	234653	11.1731	251.448
53	6.30957	236864	47722.2	241624	11.3912	254.614
54	5.01187	244002	50096.5	249092	11.6023	257.674
55	3.98107	251642	52557.1	257072.062	11.797	260.859
56	3.16228	259498	54887.5	265240	11.9428	264.019
57	2.51189	267861	57363.6	273934	12.0876	267.284
58	1.99526	276368	59682.4	282739	12.186	270.804
59	1.58489	285519.579	61835.3	292139	12.2199	274.104
60	1.25893	294824	63993	301689	12.2464	277.494
61	1	304586	66027.1	311661	12.2311	283.879
62	0.794328	315216	66360.6	322125	11.8886	287.824
63	0.630957	325215	68371.5	332324	11.8726	291.909
64	0.501187	335235	70231.2	342513	11.8322	296.484
65	0.398107	345432.92	72133.9	352884	11.7951	301.444
66	0.316228	355476	74083.4	363114	11.7723	306.685
67	0.251189	365231	76419.7	373141	11.8179	312.8
68	0.199526	374886	79386.1	383199	11.9564	319.5
69	0.158489	384303	83230.4	393213	12.2201	327.295
70	0.125893	393754	88247.7	403522	12.6323	336.46
71	0.1	403235	94714.9	414210	13.2184	347.15

File: Z_beam2_20241120.txt
Index	Frequency (Hz)	Z' (Ω)	-Z'' (Ω)	Z (Ω)	-Phase (°)	Time (s)
1	1000000	5189.26	7619.16	9218.46	55.742	53.0448
2	794328.25	6412.73	8583.68	10714.6	53.2372	63.39
3	630957.375	7747.57	9606.64	12341.5	51.1145	68.7951
4	501187	9434.49	10676.5	14247.7	48.534	71.5051
5	398107	11268.5	11784.9	16305.3	46.2831	80.0953
6	316228	13274.3	12898.9	18509.1	44.1782	82.2803
7	251189	15651.6	13851.6	20900.7	41.5087	88.9605
8	199526	18212.1	14843.4	23494.8	39.1811	91.1255
9	158489	21011.2	15739.3	26252.5	36.8365	93.5056
10	125893	23953.7	16270.3	28956.9	34.1858	95.1406
11	100000	26830.9	16728.7	31618.8	31.943	96.8706
12	79432.8	29779.5	16863	34222.5	29.5213	102.231
13	63095.7	32760.1	16613.1	36731.7	26.8902	106.846
14	50118.7	35603.458	16216.3	39122.5	24.4878	114.091
15	39810.7	38388.4	15698.8	41474.3	22.2419	116.816
16	31622.8	40819.5	15204.7	43559.3	20.4297	125.351
17	25118.9	43144.3	14704.8	45581.3	18.8206	128.941
18	19952.6	45313.4	14204.4	47487.6	17.4046	131.561
19	15848.9	47395.2	13752.2	49350	16.1807	139.691
20	12589.3	49369.9	13306.2	51131.6	15.084	150.197
21	10000	51311.5	12896.9	52907.4	14.1088	158.517
22	7943.28	53179	12487.9	54625.6	13.2152	164.832
23	6309.57	55010.5	12055.8	56316.1	12.3612	171.417
24	5011.87	56700.8	11621.1	57879.5	11.5826	183.317
25	3981.07	58367.1	11200.9	59432.1	10.8632	185.422
26	3162.28	59877.6	10759.5	60836.6	10.1869	187.327
27	2511.89	61412.7	10380.8	62283.8	9.59421	189.152
28	1995.26	62751	10100.4	63558.7	9.14387	191.002
29	1584.89	64064.2	9813.78	64811.6	8.70924	192.732
30	1258.93	65401.8	9678.63	66114.1	8.41794	194.482
31	1000	66692.2	9449.93	67358.4	8.06482	196.567
32	794.328	67859.2	9316.1	68495.7	7.81702	198.748
33	630.957	69073.2	9381.84	69707.4	7.73485	200.773
34	501.187	70329.4	9402.58	70955.2	7.61491	202.568
35	398.107	71579.5	9505.56	72207.9	7.56446	204.368
36	316.228	72859	9680.77	73499.3	7.56855	206.388
37	251.189	74188.2	9827.53	74836.3	7.5459	208.418
38	199.526	75536.9	10137.3	76214.1	7.6436	210.473
39	158.489	76937.8	10503.2	77651.5	7.77369	212.513
40	125.893	78411.3	10911.8	79166.9	7.92248	214.583
41	100	79968.9	11368.1	80772.9	8.09072	216.658
42	79.4328	81585.4	11917.4	82451.2	8.31057	218.663
43	63.0957	83323.5	12422.4	84244.4	8.47955	220.873
44	50.1187	85135.5	12941.2	86113.5	8.64319	222.968
45	39.8107	87064.6	13483.3	88102.5	8.8032	232.878
46	31.6228	89062.7	14023.4	90159.9	8.94809	235.118
47	25.1189	91180.2	14568.6	92336.7	9.07786	237.403
48	19.9526	93364.3	15098.8	94577.3	9.18627	240.178
49	15.8489	95652.5	15624.2	96920.1	9.27697	242.818
50	12.5893	98024.3	16133.1	99343.1	9.34609	245.613
51	10	100483	16629	101849	9.3968	248.413
52	7.94328	102964	17182.9	104388	9.47434	251.448
53	6.30957	105533	17614.5	106993	9.47589	254.614
54	5.01187	108182	18036.6	109675	9.46555	257.674
55	3.98107	110912	18445.1	112435	9.44211	260.859
56	3.16228	113618	18847.9	115171	9.41893	264.019
57	2.51189	116386	19251.2	117967	9.39218	267.284
58	1.99526	119075.244	19657.1	120687	9.37391	270.804
59	1.58489	121871	20113.9	123520	9.37177	274.104
60	1.25893	124584	20615.8	126278	9.39599	277.494
61	1	127312	21209.2	129067	9.45815	283.879
62	0.794328	130005	21986.2	131851	9.59892	287.824
63	0.630957	132590	22936	134559.016	9.81416	291.909
64	0.501187	135088	24189.7	137236	10.1522	296.484
65	0.398107	137554	25897.6	139971	10.6624	301.444
66	0.316228	140000	28103.6	142793	11.3507	306.685
67	0.251189	142349	31050.6	145696	12.3052	312.8
68	0.199526	144903.374	34822	149029	13.5126	319.5
69	0.158489	147605	39494.5	152798	14.9796	327.295
70	0.125893	150588	45211.6	157229	16.7115	336.46
71	0.1	154030.966	52026.3	162580	18.6632	347.15