Folder: Streamlit_cement_impedance/data/plate_beam (part 7)

File: Z_plate2_20241129.txt
Index	Frequency (Hz)	Z' (Ω)	-Z'' (Ω)	Z (Ω)	-Phase (°)	Time (s)
1	1000000	841.758	261.55	881.456	17.261	53.0448
2	794328.25	888.499	250.856	923.234	15.7663	63.39
3	630957.375	930.36	237.317	960.151	14.3099	68.7951
4	501187	968.048	222.152	993.211	12.9247	71.5051
5	398107	1000.9	206.943	1022.07	11.6817	80.0953
6	316228	1030.19	192.273	1047.98	10.572	82.2803
7	251189	1056.8	178.522	1071.77	9.58832	88.9605
8	199526	1080.55	165.272	1093.12	8.69608	91.1255
9	158489	1102.37	153.423	1112.99	7.92327	93.5056
10	125893	1121.98	142.166	1130.95	7.22149	95.1406
11	100000	1140.04	132.031	1147.66	6.60613	96.8706
12	79432.8	1156.38	121.71	1162.77	6.00828	102.231
13	63095.7	1171.75	114.894	1177.37	5.60012	106.846
14	50118.7	1185.97	108.925	1190.96	5.24759	114.091
15	39810.7	1199.4	103.955	1203.9	4.95361	116.816
16	31622.8	1212.08	99.9612	1216.19	4.71456	125.351
17	25118.9	1224.5	96.83	1228.32	4.52139	128.941
18	19952.6	1236.69	94.6263	1240.31	4.37549	131.561
19	15848.9	1248.88	93.2138	1252.35	4.26853	139.691
20	12589.3	1261.14	92.5073	1264.53	4.19525	150.197
21	10000	1273.62	92.3721	1276.96	4.14824	158.517
22	7943.28	1286.39	92.7626	1289.73	4.1245	164.832
23	6309.57	1299.61	93.2233	1302.95	4.10289	171.417
24	5011.87	1313.27	93.9753	1316.63	4.09301	183.317
25	3981.07	1327.22	94.7431	1330.6	4.08311	185.422
26	3162.28	1341.69	95.2743	1345.07	4.06178	187.327
27	2511.89	1356.39	95.5088	1359.75	4.02779	189.152
28	1995.26	1371.31	95.3147	1374.62	3.97602	191.002
29	1584.89	1386.25	94.4845	1389.47	3.89914	192.732
30	1258.93	1401.45	92.9773	1404.53	3.79565	194.482
31	1000	1416.09	90.8984	1419	3.67277	196.567
32	794.328	1430.52	87.9769	1433.22	3.51926	198.748
33	630.957	1444.21	84.3225	1446.67	3.34151	200.773
34	501.187	1456.18	80.3142	1458.39	3.1569	202.568
35	398.107	1467.17	76.1176	1469.14	2.96988	204.368
36	316.228	1476.6	72.1141	1478.36	2.79599	206.388
37	251.189	1484.49	68.7682	1486.08	2.65231	208.418
38	199.526	1490.8	66.7135	1492.29	2.56228	210.473
39	158.489	1495.64	66.5535	1497.12	2.54788	212.513
40	125.893	1499.46	68.8696	1501.05	2.62972	214.583
41	100	1502.8	74.166	1504.63	2.82536	216.658
42	79.4328	1506	84.3527	1508.36	3.20584	218.663
43	63.0957	1509.98	97.1513	1513.1	3.68131	220.873
44	50.1187	1515.57	113.784	1519.83	4.29353	222.968
45	39.8107	1522.98	135.446	1528.99	5.08223	232.878
46	31.6228	1532.73	161.443	1541.21	6.01281	235.118
47	25.1189	1545.69	193.049	1557.7	7.11908	237.403
48	19.9526	1562.49	229.64	1579.27	8.36095	240.178
49	15.8489	1582.78	273.11	1606.17	9.79005	242.818
50	12.5893	1607.09	323.571	1639.34	11.3837	245.613
51	10	1636.94	382.395	1681.01	13.1487	248.413
52	7.94328	1670.79	451.368	1730.68	15.1177	251.448
53	6.30957	1710.5	528.424	1790.27	17.1674	254.614
54	5.01187	1758.92	617.889	1864.29	19.3558	257.674
55	3.98107	1816.77	721.232	1954.69	21.6524	260.859
56	3.16228	1879.63	838.024	2057.99	24.0294	264.019
57	2.51189	1953.43	974.382	2182.96	26.5102	267.284
58	1.99526	2035.29	1123.88	2324.98	28.9073	270.804
59	1.58489	2133.18	1301.1	2498.66	31.3804	274.104
60	1.25893	2243.11	1498.33	2697.51	33.7418	277.494
61	1	2371.12	1726.55	2933.12	36.0606	283.879
62	0.794328	2530.53	1974.95	3209.98	37.9701	287.824
63	0.630957	2692.78	2273.9	3524.44	40.1793	291.909
64	0.501187	2874.64	2613.03	3884.78	42.2707	296.484
65	0.398107	3082.85	3010.79	4309.16	44.3225	301.444
66	0.316228	3316.07	3472.35	4801.41	46.3188	306.685
67	0.251189	3575.04	3997.66	5363.04	48.1942	312.8
68	0.199526	3870.25	4613.09	6021.58	50.0043	319.5
69	0.158489	4206.46	5332.17	6791.64	51.7307	327.295
70	0.125893	4594.07	6178.12	7699	53.3654	336.46
71	0.1	5045.14	7177.55	8773.29	54.8964	347.15

File: Z_plate2_20241205.txt
Index	Frequency (Hz)	Z' (Ω)	-Z'' (Ω)	Z (Ω)	-Phase (°)	Time (s)
1	1000000	912.604	327.526	969.598	19.7427	53.0448
2	794328.25	972.28	315.923	1022.32	18.0005	63.39
3	630957.375	1026.26	299.452	1069.05	16.2667	68.7951
4	501187	1075.02	281.144	1111.18	14.6559	71.5051
5	398107	1117.39	262.174	1147.74	13.2045	80.0953
6	316228	1155	243.502	1180.39	11.905	82.2803
7	251189	1188.8	225.696	1210.04	10.7498	88.9605
8	199526	1218.86	208.555	1236.57	9.70969	91.1255
9	158489	1246.79	192.892	1261.62	8.79457	93.5056
10	125893	1271.37	178.384	1283.82	7.98693	95.1406
11	100000	1293.67	165.05	1304.15	7.27069	96.8706
12	79432.8	1314.27	151.655	1323	6.58229	102.231
13	63095.7	1333.39	142.344	1340.97	6.09345	106.846
14	50118.7	1350.94	134.089	1357.58	5.66837	114.091
15	39810.7	1367.34	127.019	1373.23	5.30727	116.816
16	31622.8	1382.77	121.327	1388.09	5.01439	125.351
17	25118.9	1397.68	116.765	1402.55	4.77554	128.941
18	19952.6	1412.16	113.331	1416.7	4.58836	131.561
19	15848.9	1426.51	110.882	1430.81	4.44465	139.691
20	12589.3	1440.83	109.417	1444.98	4.34275	150.197
21	10000	1455.35	108.551	1459.39	4.26564	158.517
22	7943.28	1470.14	108.62	1474.15	4.22558	164.832
23	6309.57	1485.18	108.821	1489.16	4.19063	171.417
24	5011.87	1500.74	109.466	1504.73	4.17184	183.317
25	3981.07	1516.66	110.327	1520.67	4.16057	185.422
26	3162.28	1533.09	110.986	1537.1	4.14062	187.327
27	2511.89	1550.01	111.454	1554.01	4.1128	189.152
28	1995.26	1567.24	111.686	1571.21	4.07617	191.002
29	1584.89	1584.65	111.37	1588.56	4.02019	192.732
30	1258.93	1602.36	110.499	1606.16	3.94491	194.482
31	1000	1619.74	108.378	1623.36	3.82799	196.567
32	794.328	1637.02	106.021	1640.45	3.70559	198.748
33	630.957	1653.63	102.558	1656.8	3.54895	200.773
34	501.187	1668.74	98.5703	1671.65	3.38045	202.568
35	398.107	1682.98	93.992	1685.6	3.19658	204.368
36	316.228	1695.59	89.4765	1697.95	3.0207	206.388
37	251.189	1706.56	85.1488	1708.68	2.85641	208.418
38	199.526	1715.86	81.7757	1717.81	2.72857	210.473
39	158.489	1723.28	80.0375	1725.14	2.65918	212.513
40	125.893	1729.38	80.4485	1731.25	2.6634	214.583
41	100	1734.48	83.635	1736.5	2.7606	216.658
42	79.4328	1738.96	91.8295	1741.39	3.02281	218.663
43	63.0957	1743.75	102.431	1746.75	3.3618	220.873
44	50.1187	1749.66	117.058	1753.57	3.82758	222.968
45	39.8107	1757.08	136.705	1762.39	4.44876	232.878
46	31.6228	1766.59	161.164	1773.92	5.21259	235.118
47	25.1189	1779.18	191.275	1789.43	6.13616	237.403
48	19.9526	1795.64	226.623	1809.88	7.19312	240.178
49	15.8489	1815.52	268.93	1835.33	8.42584	242.818
50	12.5893	1839.56	318.224	1866.88	9.81442	245.613
51	10	1869.15	375.533	1906.5	11.3601	248.413
52	7.94328	1903.09	443.644	1954.12	13.1223	251.448
53	6.30957	1942.73	518.974	2010.86	14.9565	254.614
54	5.01187	1991.33	606.59	2081.67	16.9416	257.674
55	3.98107	2049.44	707.491	2168.12	19.0452	260.859
56	3.16228	2112.3	821.538	2266.44	21.2526	264.019
57	2.51189	2183.49	955.385	2383.35	23.6318	267.284
58	1.99526	2262.59	1102.21	2516.78	25.9729	270.804
59	1.58489	2355.88	1276.7	2679.58	28.4542	274.104
60	1.25893	2459.19	1472.09	2866.12	30.905	277.494
61	1	2578.63	1698.29	3087.64	33.369	283.879
62	0.794328	2728.44	1949.55	3353.38	35.547	287.824
63	0.630957	2881.09	2253.27	3657.58	38.0286	291.909
64	0.501187	3054.36	2600.53	4011.47	40.4117	296.484
65	0.398107	3255.47	3009.25	4433.25	42.7493	301.444
66	0.316228	3482.67	3483.28	4925.67	45.005	306.685
67	0.251189	3737.64	4024.77	5492.6	47.1184	312.8
68	0.199526	4028.8	4658.87	6159.24	49.1481	319.5
69	0.158489	4360.44	5399.25	6940.12	51.0756	327.295
70	0.125893	4742.76	6270.87	7862.41	52.8992	336.46
71	0.1	5187.82	7300.98	8956.44	54.6037	347.15

File: Z_plate2_20241212.txt
Index	Frequency (Hz)	Z' (Ω)	-Z'' (Ω)	Z (Ω)	-Phase (°)	Time (s)
1	1000000	956.388	366.935	1024.36	20.9902	53.0448
2	794328.25	1022.68	355.09	1082.57	19.1479	63.39
3	630957.375	1083.83	338.228	1135.38	17.3315	68.7951
4	501187	1138.76	318.068	1182.34	15.6057	71.5051
5	398107	1186.79	296.988	1223.38	14.0495	80.0953
6	316228	1230.39	276.229	1261.02	12.6534	82.2803
7	251189	1268.84	256.639	1294.53	11.4346	88.9605
8	199526	1303.87	237.413	1325.31	10.3196	91.1255
9	158489	1335.9	219.51	1353.82	9.33124	93.5056
10	125893	1364.01	202.994	1379.03	8.46472	95.1406
11	100000	1389.67	187.851	1402.31	7.69838	96.8706
12	79432.8	1413.07	172.819	1423.6	6.97264	102.231
13	63095.7	1434.82	161.598	1443.89	6.42592	106.846
14	50118.7	1454.64	151.714	1462.53	5.95424	114.091
15	39810.7	1473.19	143.266	1480.14	5.55448	116.816
16	31622.8	1490.42	136.349	1496.64	5.2271	125.351
17	25118.9	1507.05	130.811	1512.72	4.96079	128.941
18	19952.6	1523.11	126.511	1528.36	4.74814	131.561
19	15848.9	1538.92	123.506	1543.87	4.58844	139.691
20	12589.3	1554.78	121.496	1559.52	4.46819	150.197
21	10000	1570.72	120.458	1575.33	4.3854	158.517
22	7943.28	1586.95	120.265	1591.5	4.33381	164.832
23	6309.57	1603.49	120.28	1607.99	4.28982	171.417
24	5011.87	1620.51	121.129	1625.03	4.27476	183.317
25	3981.07	1638.18	121.944	1642.71	4.25718	185.422
26	3162.28	1656.15	122.699	1660.69	4.23713	187.327
27	2511.89	1674.72	123.507	1679.27	4.21781	189.152
28	1995.26	1693.72	123.862	1698.25	4.18259	191.002
29	1584.89	1713.03	123.818	1717.5	4.13416	192.732
30	1258.93	1732.48	123.008	1736.84	4.06124	194.482
31	1000	1752.03	121.232	1756.22	3.95826	196.567
32	794.328	1771.1	118.889	1775.09	3.84034	198.748
33	630.957	1789.71	115.202	1793.41	3.68301	200.773
34	501.187	1807.09	110.949	1810.49	3.51334	202.568
35	398.107	1823.4	106.114	1826.49	3.33062	204.368
36	316.228	1838.15	100.976	1840.92	3.1443	206.388
37	251.189	1850.98	96.0599	1853.47	2.9708	208.418
38	199.526	1861.89	91.7984	1864.16	2.82261	210.473
39	158.489	1870.74	89.0674	1872.86	2.72584	212.513
40	125.893	1877.94	88.6962	1880.03	2.7041	214.583
41	100	1883.88	91.069	1886.08	2.7676	216.658
42	79.4328	1888.84	98.9444	1891.43	2.99863	218.663
43	63.0957	1893.96	109.236	1897.1	3.30094	220.873
44	50.1187	1900.01	123.963	1904.05	3.73289	222.968
45	39.8107	1907.59	144.231	1913.04	4.32384	232.878
46	31.6228	1917.13	169.846	1924.64	5.06284	235.118
47	25.1189	1930.01	201.654	1940.51	5.96484	237.403
48	19.9526	1946.78	239.393	1961.44	7.01041	240.178
49	15.8489	1967.13	284.715	1987.63	8.23556	242.818
50	12.5893	1992.09	337.869	2020.54	9.62607	245.613
51	10	2022.81	400.209	2062.02	11.1913	248.413
52	7.94328	2057.9	474.997	2112.01	12.9971	251.448
53	6.30957	2099.66	557.608	2172.44	14.8727	254.614
54	5.01187	2151.08	654.253	2248.37	16.9172	257.674
55	3.98107	2212.65	766.852	2341.77	19.1151	260.859
56	3.16228	2279.2	893.916	2448.23	21.4154	264.019
57	2.51189	2357.2	1042.46	2577.42	23.8572	267.284
58	1.99526	2444.69	1206.59	2726.24	26.2689	270.804
59	1.58489	2548.61	1401.79	2908.69	28.8118	274.104
60	1.25893	2665.23	1617.69	3117.75	31.2561	277.494
61	1	2800.92	1870.38	3368.01	33.7339	283.879
62	0.794328	2970.21	2148.76	3665.97	35.8834	287.824
63	0.630957	3143.78	2481.18	4004.94	38.2817	291.909
64	0.501187	3338.73	2859.37	4395.8	40.5775	296.484
65	0.398107	3562.63	3302.99	4858.19	42.8343	301.444
66	0.316228	3813.28	3817.57	5395.82	45.0322	306.685
67	0.251189	4092.66	4405.71	6013.33	47.1096	312.8
68	0.199526	4409.63	5092.52	6736.36	49.1106	319.5
69	0.158489	4770.96	5897.32	7585.54	51.0269	327.295
70	0.125893	5188.28	6845.48	8589.46	52.841	336.46
71	0.1	5674.69	7967.35	9781.66	54.5399	347.15

File: Z_plate2_20241219.txt
Index	Frequency (Hz)	Z' (Ω)	-Z'' (Ω)	Z (Ω)	-Phase (°)	Time (s)
1	1000000	825.031	273.104	869.058	18.3157	53.0448
2	794328.25	874.691	266.039	914.254	16.9173	63.39
3	630957.375	921.534	253.734	955.827	15.3943	68.7951
4	501187	963.185	238.745	992.332	13.9213	71.5051
5	398107	1000.19	223.673	1024.9	12.6056	80.0953
6	316228	1032.84	208.146	1053.6	11.3941	82.2803
7	251189	1062.34	193.124	1079.75	10.3034	88.9605
8	199526	1088.54	178.9	1103.14	9.33307	91.1255
9	158489	1112.22	165.479	1124.46	8.46256	93.5056
10	125893	1133.53	152.979	1143.81	7.6861	95.1406
11	100000	1152.89	141.926	1161.59	7.01804	96.8706
12	79432.8	1170.55	129.324	1177.67	6.30457	102.231
13	63095.7	1187	122.018	1193.25	5.86914	106.846
14	50118.7	1202.16	115.684	1207.72	5.49663	114.091
15	39810.7	1216.51	110.412	1221.51	5.18603	116.816
16	31622.8	1230.02	106.138	1234.59	4.93184	125.351
17	25118.9	1243.2	102.814	1247.45	4.72767	128.941
18	19952.6	1256.19	100.373	1260.2	4.56839	131.561
19	15848.9	1269.14	98.8338	1272.98	4.4529	139.691
20	12589.3	1282.12	98.0043	1285.86	4.37115	150.197
21	10000	1295.36	97.8319	1299.05	4.31906	158.517
22	7943.28	1308.8	98.063	1312.47	4.28491	164.832
23	6309.57	1322.7	98.6025	1326.37	4.26332	171.417
24	5011.87	1336.91	99.388	1340.6	4.25165	183.317
25	3981.07	1351.63	100.168	1355.34	4.23839	185.422
26	3162.28	1366.49	100.969	1370.22	4.22585	187.327
27	2511.89	1381.94	101.51	1385.66	4.20108	189.152
28	1995.26	1397.65	101.854	1401.35	4.16808	191.002
29	1584.89	1413.45	101.585	1417.09	4.11081	192.732
30	1258.93	1429.41	100.871	1432.96	4.03659	194.482
31	1000	1445.41	99.3571	1448.82	3.93232	196.567
32	794.328	1460.82	97.0984	1464.04	3.80278	198.748
33	630.957	1476.08	94.4968	1479.1	3.66302	200.773
34	501.187	1489.79	91.1595	1492.58	3.50154	202.568
35	398.107	1502.69	87.601	1505.24	3.33635	204.368
36	316.228	1514.36	84.0937	1516.69	3.17842	206.388
37	251.189	1524.61	81.0292	1526.76	3.04226	208.418
38	199.526	1533.4	78.9697	1535.43	2.94812	210.473
39	158.489	1540.9	78.4766	1542.9	2.91551	212.513
40	125.893	1547.4	80.0348	1549.47	2.96082	214.583
41	100	1553.42	84.0827	1555.69	3.09825	216.658
42	79.4328	1559.13	92.669	1561.88	3.40145	218.663
43	63.0957	1565.56	103.135	1568.95	3.76907	220.873
44	50.1187	1573.3	116.923	1577.64	4.25024	222.968
45	39.8107	1582.8	134.829	1588.53	4.86893	232.878
46	31.6228	1594.25	156.557	1601.91	5.60855	235.118
47	25.1189	1608.63	182.876	1618.99	6.48576	237.403
48	19.9526	1626.34	213.062	1640.23	7.46367	240.178
49	15.8489	1647.08	248.915	1665.78	8.59381	242.818
50	12.5893	1671.49	290.347	1696.52	9.85428	245.613
51	10	1700.68	338.257	1733.99	11.2491	248.413
52	7.94328	1733.41	395.199	1777.89	12.8433	251.448
53	6.30957	1771.23	457.685	1829.41	14.4882	254.614
54	5.01187	1816.68	529.838	1892.36	16.2594	257.674
55	3.98107	1870.37	613.143	1968.31	18.1501	260.859
56	3.16228	1927.8	707.028	2053.36	20.1407	264.019
57	2.51189	1993.34	816.632	2154.14	22.2779	267.284
58	1.99526	2064.6	937.55	2267.51	24.4231	270.804
59	1.58489	2147.54	1080.93	2404.23	26.7177	274.104
60	1.25893	2238.03	1240.91	2559.03	29.0068	277.494
61	1	2341.3	1427.58	2742.2	31.3722	283.879
62	0.794328	2452.94	1649.27	2955.85	33.9155	287.824
63	0.630957	2594.41	1878.88	3203.3	35.9121	291.909
64	0.501187	2734.52	2163.11	3486.64	38.3454	296.484
65	0.398107	2894.07	2498.83	3823.58	40.8084	301.444
66	0.316228	3071.67	2889.81	4217.36	43.2527	306.685
67	0.251189	3268.47	3338.52	4672.11	45.6075	312.8
68	0.199526	3492.76	3866.76	5210.68	47.9092	319.5
69	0.158489	3748.88	4485.74	5846.02	50.1134	327.295
70	0.125893	4046.97	5216.29	6602.1	52.1945	336.46
71	0.1	4398.12	6079.99	7503.98	54.1189	347.15

File: Z_plate3_20241120 .txt
Index	Frequency (Hz)	Z' (Ω)	-Z'' (Ω)	Z (Ω)	-Phase (°)	Time (s)
1	1000000	678.712	205.062	709.014	16.8113	53.0448
2	794328.25	712.059	198.192	739.127	15.5538	63.39
3	630957.375	748.819	187.143	771.85	14.0318	68.7951
4	501187	780.302	174.27	799.525	12.5896	71.5051
5	398107	807.185	161.132	823.11	11.2891	80.0953
6	316228	830.166	148.781	843.393	10.1606	82.2803
7	251189	851.7	135.834	862.464	9.06154	88.9605
8	199526	869.531	124.753	878.435	8.1646	91.1255
9	158489	885.736	115.026	893.174	7.39928	93.5056
10	125893	899.992	106.413	906.261	6.74321	95.1406
11	100000	913.088	98.8678	918.425	6.17983	96.8706
12	79432.8	925.479	90.1121	929.855	5.56125	102.231
13	63095.7	937.093	85.4664	940.983	5.21117	106.846
14	50118.7	948.004	81.1597	951.472	4.89322	114.091
15	39810.7	958.344	77.369	961.462	4.61559	116.816
16	31622.8	967.88	74.2461	970.724	4.38657	125.351
17	25118.9	977.283	71.7164	979.911	4.19704	128.941
18	19952.6	986.45	69.6698	988.907	4.03991	131.561
19	15848.9	995.329	68.1716	997.661	3.91816	139.691
20	12589.3	1004.3	67.2246	1006.54	3.82949	150.197
21	10000	1013.33	66.6532	1015.52	3.76327	158.517
22	7943.28	1022.28	66.5605	1024.45	3.72526	164.832
23	6309.57	1031.5	66.6569	1033.65	3.69739	171.417
24	5011.87	1040.86	67.0942	1043.02	3.68821	183.317
25	3981.07	1050.53	67.5926	1052.7	3.68141	185.422
26	3162.28	1060.44	68.1442	1062.63	3.67679	187.327
27	2511.89	1070.62	68.733	1072.82	3.67331	189.152
28	1995.26	1080.87	69.1962	1083.08	3.66302	191.002
29	1584.89	1091.51	69.4314	1093.72	3.63969	192.732
30	1258.93	1101.89	69.5492	1104.08	3.61162	194.482
31	1000	1112.54	69.1964	1114.69	3.55902	196.567
32	794.328	1122.86	68.6737	1124.96	3.49981	198.748
33	630.957	1132.87	68.0165	1134.91	3.43587	200.773
34	501.187	1142.35	67.2954	1144.33	3.37137	202.568
35	398.107	1151.34	66.7164	1153.28	3.31638	204.368
36	316.228	1159.65	66.4929	1161.56	3.28168	206.388
37	251.189	1167.3	66.9229	1169.22	3.28125	208.418
38	199.526	1174.59	68.4059	1176.58	3.33302	210.473
39	158.489	1181.11	71.1719	1183.25	3.44838	212.513
40	125.893	1187.67	75.7413	1190.08	3.649	214.583
41	100	1194.1	82.2994	1196.93	3.94268	216.658
42	79.4328	1201.16	92.3428	1204.71	4.39612	218.663
43	63.0957	1208.92	103.895	1213.37	4.91194	220.873
44	50.1187	1217.87	118.095	1223.58	5.53856	222.968
45	39.8107	1228.68	135.858	1236.17	6.3097	232.878
46	31.6228	1241.81	157.056	1251.7	7.20814	235.118
47	25.1189	1256.4	182.084	1269.52	8.24623	237.403
48	19.9526	1275.16	211.211	1292.54	9.40478	240.178
49	15.8489	1296.17	245.021	1319.12	10.7046	242.818
50	12.5893	1321.26	284.032	1351.45	12.1322	245.613
51	10	1351.16	328.693	1390.57	13.6726	248.413
52	7.94328	1384.82	380.303	1436.1	15.3561	251.448
53	6.30957	1423.41	436.693	1488.89	17.0557	254.614
54	5.01187	1469.17	501.029	1552.25	18.8309	257.674
55	3.98107	1522.54	574.289	1627.25	20.6661	260.859
56	3.16228	1579.15	655.133	1709.65	22.5318	264.019
57	2.51189	1641.88	747.84	1804.17	24.4882	267.284
58	1.99526	1708.92	849.719	1908.52	26.4377	270.804
59	1.58489	1784.41	969.14	2030.61	28.507	274.104
60	1.25893	1866.14	1102.41	2167.44	30.5721	277.494
61	1	1957	1256.84	2325.84	32.7097	283.879
62	0.794328	2054.23	1440.56	2509	35.0406	287.824
63	0.630957	2165.35	1644.13	2718.81	37.2091	291.909
64	0.501187	2283.41	1875.8	2955.09	39.4028	296.484
65	0.398107	2432.43	2144.68	3242.9	41.4027	301.444
66	0.316228	2583.32	2469.72	3573.94	43.7122	306.685
67	0.251189	2749.41	2843.62	3955.43	45.965	312.8
68	0.199526	2938.52	3284.36	4407.04	48.181	319.5
69	0.158489	3155.58	3803.2	4941.87	50.3169	327.295
70	0.125893	3408.14	4417.75	5579.6	52.3511	336.46
71	0.1	3704.42	5143.03	6338.26	54.2355	347.15

File: Z_plate3_20241129.txt
Index	Frequency (Hz)	Z' (Ω)	-Z'' (Ω)	Z (Ω)	-Phase (°)	Time (s)
1	1000000	704.688	210.395	735.426	16.6238	53.0448
2	794328.25	743.48	202.429	770.546	15.2308	63.39
3	630957.375	778.542	191.644	801.782	13.8289	68.7951
4	501187	809.615	179.295	829.23	12.4871	71.5051
5	398107	836.442	166.759	852.903	11.2751	80.0953
6	316228	860.295	154.629	874.081	10.1895	82.2803
7	251189	881.269	143.213	892.83	9.23033	88.9605
8	199526	900.238	132.843	909.986	8.39426	91.1255
9	158489	917.527	123.461	925.796	7.66363	93.5056
10	125893	933.227	114.896	940.273	7.01873	95.1406
11	100000	947.74	107.382	953.804	6.46421	96.8706
12	79432.8	961.411	99.3553	966.532	5.90018	102.231
13	63095.7	974.327	94.1673	978.867	5.52041	106.846
14	50118.7	986.453	89.556	990.51	5.18742	114.091
15	39810.7	997.851	85.393	1001.5	4.89128	116.816
16	31622.8	1008.68	81.7831	1011.99	4.63538	125.351
17	25118.9	1019.1	78.7203	1022.14	4.41703	128.941
18	19952.6	1029.19	76.2385	1032.01	4.23651	131.561
19	15848.9	1039.03	74.3218	1041.69	4.09139	139.691
20	12589.3	1048.78	72.9648	1051.32	3.97972	150.197
21	10000	1058.51	72.0394	1060.96	3.89339	158.517
22	7943.28	1068.29	71.6543	1070.69	3.83731	164.832
23	6309.57	1078.16	71.3886	1080.52	3.78822	171.417
24	5011.87	1088.18	71.4799	1090.52	3.75822	183.317
25	3981.07	1098.46	71.6636	1100.8	3.73268	185.422
26	3162.28	1109.01	71.9028	1111.34	3.70958	187.327
27	2511.89	1119.69	72.0822	1122.01	3.68343	189.152
28	1995.26	1130.64	72.1203	1132.94	3.64979	191.002
29	1584.89	1141.45	72.0175	1143.72	3.61018	192.732
30	1258.93	1152.54	71.6271	1154.77	3.55619	194.482
31	1000	1163.32	70.8064	1165.47	3.48305	196.567
32	794.328	1173.93	69.676	1175.99	3.39668	198.748
33	630.957	1184.21	68.4124	1186.18	3.30634	200.773
34	501.187	1193.77	67.1624	1195.66	3.2201	202.568
35	398.107	1202.66	65.9272	1204.47	3.13768	204.368
36	316.228	1210.83	65.0802	1212.58	3.0766	206.388
37	251.189	1218.19	64.9455	1219.92	3.05172	208.418
38	199.526	1224.9	65.8228	1226.67	3.07597	210.473
39	158.489	1230.98	68.1763	1232.87	3.17001	212.513
40	125.893	1236.64	72.306	1238.75	3.34627	214.583
41	100	1242.42	78.6187	1244.9	3.62078	216.658
42	79.4328	1248.25	88.557	1251.39	4.05804	218.663
43	63.0957	1254.95	100.303	1258.95	4.56971	220.873
44	50.1187	1262.78	114.951	1268.01	5.2013	222.968
45	39.8107	1272.26	133.501	1279.25	5.99023	232.878
46	31.6228	1283.4	155.653	1292.8	6.91516	235.118
47	25.1189	1297.16	182.456	1309.93	8.00662	237.403
48	19.9526	1314.03	213.658	1331.29	9.23531	240.178
49	15.8489	1333.77	250.612	1357.11	10.6417	242.818
50	12.5893	1356.77	293.592	1388.17	12.21	245.613
51	10	1384.77	343.622	1426.77	13.9361	248.413
52	7.94328	1416.17	402.087	1472.14	15.8506	251.448
53	6.30957	1452.3	467.16	1525.59	17.8314	254.614
54	5.01187	1495.83	543.002	1591.34	19.9514	257.674
55	3.98107	1547.42	631.243	1671.22	22.1921	260.859
56	3.16228	1602.33	729.713	1760.66	24.4849	264.019
57	2.51189	1665.49	844.846	1867.52	26.8971	267.284
58	1.99526	1734.32	971.908	1988.08	29.2662	270.804
59	1.58489	1815.71	1122.75	2134.8	31.7307	274.104
60	1.25893	1906.26	1291.37	2302.49	34.1152	277.494
61	1	2010.57	1487.78	2501.17	36.5007	283.879
62	0.794328	2125.28	1718.88	2733.38	38.9652	287.824
63	0.630957	2257.39	1975.96	3000.04	41.1967	291.909
64	0.501187	2416.79	2258.38	3307.74	43.0594	296.484
65	0.398107	2582.01	2608.64	3670.39	45.2939	301.444
66	0.316228	2767.4	3018.46	4095.07	47.4846	306.685
67	0.251189	2972.51	3488.12	4582.88	49.563	312.8
68	0.199526	3206.37	4042	5159.32	51.5763	319.5
69	0.158489	3473.45	4693.36	5838.88	53.4956	327.295
70	0.125893	3782.77	5464.13	6645.75	55.3055	336.46
71	0.1	4144.48	6381.62	7609.32	56.9987	347.15

File: Z_plate3_20241205.txt
Index	Frequency (Hz)	Z' (Ω)	-Z'' (Ω)	Z (Ω)	-Phase (°)	Time (s)
1	1000000	767.811	258.588	810.186	18.6128	53.0448
2	794328.25	815.421	249.754	852.812	17.0292	63.39
3	630957.375	859.198	236.783	891.228	15.4075	68.7951
4	501187	898.475	221.672	925.417	13.8592	71.5051
5	398107	932.001	205.7	954.431	12.4461	80.0953
6	316228	961.8	189.814	980.351	11.164	82.2803
7	251189	987.595	175.189	1003.01	10.059	88.9605
8	199526	1010.79	161.818	1023.66	9.09534	91.1255
9	158489	1031.61	149.178	1042.34	8.22833	93.5056
10	125893	1050.14	138.199	1059.19	7.4971	95.1406
11	100000	1067.29	128.329	1074.98	6.85624	96.8706
12	79432.8	1083.2	118.511	1089.67	6.24376	102.231
13	63095.7	1098.28	111.858	1103.96	5.81543	106.846
14	50118.7	1112.36	105.803	1117.38	5.43339	114.091
15	39810.7	1125.66	100.54	1130.14	5.10395	116.816
16	31622.8	1138.28	95.9941	1142.32	4.8205	125.351
17	25118.9	1150.38	92.1518	1154.06	4.57994	128.941
18	19952.6	1162.1	88.9998	1165.51	4.37946	131.561
19	15848.9	1173.47	86.5636	1176.66	4.21891	139.691
20	12589.3	1184.75	84.697	1187.77	4.08908	150.197
21	10000	1195.99	83.4443	1198.9	3.99105	158.517
22	7943.28	1207.16	82.7742	1210	3.92259	164.832
23	6309.57	1218.48	82.3515	1221.26	3.86648	171.417
24	5011.87	1229.94	82.3291	1232.69	3.82952	183.317
25	3981.07	1241.63	82.4942	1244.37	3.80117	185.422
26	3162.28	1253.55	82.8461	1256.28	3.78113	187.327
27	2511.89	1265.78	83.308	1268.52	3.76552	189.152
28	1995.26	1278.15	83.4782	1280.87	3.73678	191.002
29	1584.89	1290.71	83.6782	1293.42	3.70935	192.732
30	1258.93	1303.16	83.6388	1305.84	3.67229	194.482
31	1000	1316.1	83.2643	1318.73	3.62005	196.567
32	794.328	1328.54	82.3975	1331.09	3.549	198.748
33	630.957	1340.89	81.4095	1343.36	3.47434	200.773
34	501.187	1352.31	80.2861	1354.7	3.39763	202.568
35	398.107	1363.39	79.0833	1365.68	3.31972	204.368
36	316.228	1373.71	78.1743	1375.93	3.25704	206.388
37	251.189	1383.17	77.8503	1385.36	3.22145	208.418
38	199.526	1391.92	78.3867	1394.12	3.22324	210.473
39	158.489	1399.83	80.3535	1402.14	3.2853	212.513
40	125.893	1407.4	84.1067	1409.91	3.41995	214.583
41	100	1414.84	89.9916	1417.69	3.63944	216.658
42	79.4328	1422.24	99.6909	1425.73	4.00955	218.663
43	63.0957	1430.41	111.003	1434.71	4.43737	220.873
44	50.1187	1439.8	125.287	1445.24	4.97316	222.968
45	39.8107	1450.78	143.478	1457.86	5.64805	232.878
46	31.6228	1463.39	165.231	1472.69	6.44195	235.118
47	25.1189	1478.77	191.642	1491.14	7.38414	237.403
48	19.9526	1497.34	222.328	1513.76	8.44566	240.178
49	15.8489	1518.75	258.434	1540.58	9.6571	242.818
50	12.5893	1543.62	300.437	1572.59	11.0139	245.613
51	10	1573.43	349.085	1611.68	12.5092	248.413
52	7.94328	1606.69	406.162	1657.23	14.1868	251.448
53	6.30957	1644.26	469.258	1709.91	15.9283	254.614
54	5.01187	1689.27	542.773	1774.32	17.8126	257.674
55	3.98107	1742.41	628.078	1852.15	19.8225	260.859
56	3.16228	1796.87	723.637	1937.11	21.9357	264.019
57	2.51189	1858.14	836.158	2037.6	24.2277	267.284
58	1.99526	1923.86	960.869	2150.47	26.5397	270.804
59	1.58489	1999.56	1110.1	2287.04	29.0378	274.104
60	1.25893	2082.55	1279.28	2444.09	31.5619	277.494
61	1	2177.87	1478.22	2632.16	34.1665	283.879
62	0.794328	2281.9	1717.15	2855.82	36.9618	287.824
63	0.630957	2420.24	1968.84	3119.92	39.1281	291.909
64	0.501187	2558.32	2280.71	3427.34	41.7166	296.484
65	0.398107	2720.22	2651.91	3798.98	44.2715	301.444
66	0.316228	2903.94	3083.92	4235.97	46.7217	306.685
67	0.251189	3111.76	3581.12	4744.21	49.0115	312.8
68	0.199526	3351.26	4166.52	5347.04	51.1892	319.5
69	0.158489	3626.62	4853.33	6058.65	53.2313	327.295
70	0.125893	3946.65	5664.75	6904.02	55.135	336.46
71	0.1	4321.31	6626.68	7911.17	56.8913	347.15