Folder: Streamlit_cement_impedance/data/Z_measu_on_silk_fibroin

Note: README.md
# Software KDssZ version 1.0

This software tool works to analyze impedance measurements through a lumped circuital model.

## The repository contains:

- The Python module called [KDssZ.py](https://github.com/dantrica/Streamlit_cement_impedance/blob/c79735cefb679f8cb21de758db89e5011d7d15d4/KDssZ.py) contains the algorithms to optimize the electrical impedance measurements.
- The Python module called [appZ.py](https://github.com/dantrica/Streamlit_cement_impedance/blob/b421c1652a15b18d4e0220819822e362abc5bec6/appZ.py) contains the code to deploy the application on the Streamlit platform.
- All [data](https://github.com/dantrica/Streamlit_cement_impedance/tree/c79735cefb679f8cb21de758db89e5011d7d15d4/data) acquired during the experimental campaign is located in this repository Streamlit_cement_impedance/data/.
- The [Figures](https://github.com/dantrica/Streamlit_cement_impedance/tree/c79735cefb679f8cb21de758db89e5011d7d15d4/figures) folder contains an image describing the lumped circuit model.

## The left sidebar functionalities:

The user can upload the impedance measurements in format .txt. Moreover, this object contains the elements that will be presented in the left sidebar, such as i) the uploading file option, ii) the lumped circuit model, iii) Add and Remove buttons to move data in the Optimization zone, iv) Run and Reset buttons to start and clear the optimization.

## Project Description: 

$\texttt{KDssZ}$ has been developed to optimize experimental electrical impedance data to a lumped circuit model. This approach allows users to correlate the interactions among the components in the composite-electrodes, cement, nanoparticles, and pores with the measured impedance, which is analyzed across three frequency ranges: high, medium, and low. Although the software has been validated with impedance measurements from gold nanoparticles/cement-based composites, it can also be used to study the electrical properties of other cement-based composites. KDssZ is deployed on the Streamlit platform, and in line with the principles of open science, it allows researchers working on similar studies to use this tool to explore new research questions related to cement-based composites.

## Usage instructions:

The main functionalities of the software KDssZ are displayed in Figure~\ref{}, and enumerated according to the following list:

1. Push button \texttt{Browse Files} to upload \texttt{.txt} files with electrical impedance spectroscopy data.
2. Help menu explaining the format files to be received; help hints boxes to report whether a file was added previously or it is already in the optimization zone; and help tips on buttons.
3. Choosing the file data since Select tag.
4. Buttons $\texttt{Add data}$ and $\texttt{Remove}$, to add or remove data to the optimization zone.
5. Buttons $\texttt{Run}$ and $\texttt{Reset}$, to start the optimization, create the plots and return the DataFrame with the parameters.
6. Figures: wide mode and saving options.
7. T

File: OCP_GNP0.1%_IV.txt
Time (s)	WE(1).Potential (V)	Corrected time (s)	Index	dWE(1).Potential/dt (V/s)	Cutoffs	OCP value (V)
1.42121	0.0456482	0	1	0	dWE(1).Potential/dt < 1E-06 V/s	0.0418918
1.52121	0.0456268	0.1	2	-0.000213646	dWE(1).Potential/dt < 1E-06 V/s
1.62121	0.0456146	0.2	3	-7.63313e-05	dWE(1).Potential/dt < 1E-06 V/s
1.72121	0.0456024	0.3	4	-0.000152563	dWE(1).Potential/dt < 1E-06 V/s
1.82121	0.0455933	0.4	5	-6.61488e-05	dWE(1).Potential/dt < 1E-06 V/s
1.92121	0.0455841	0.5	6	-0.00010175	dWE(1).Potential/dt < 1E-06 V/s
2.02121	0.0455719	0.6	7	-0.000147447	dWE(1).Potential/dt < 1E-06 V/s
2.12121	0.0455566	0.7	8	-0.000167837	dWE(1).Potential/dt < 1E-06 V/s
2.22121	0.0455353	0.8	9	-0.000254338	dWE(1).Potential/dt < 1E-06 V/s
2.32121	0.045517	0.9	10	-0.000137265	dWE(1).Potential/dt < 1E-06 V/s
2.42121	0.0454956	1	11	-0.000249222	dWE(1).Potential/dt < 1E-06 V/s
2.52121	0.0454803	1.1	12	-9.15305e-05	dWE(1).Potential/dt < 1E-06 V/s
2.62121	0.0454651	1.2	13	-0.000172903	dWE(1).Potential/dt < 1E-06 V/s
2.72121	0.0454437	1.3	14	-0.000264521	dWE(1).Potential/dt < 1E-06 V/s
2.82121	0.0454254	1.4	15	-0.000137265	dWE(1).Potential/dt < 1E-06 V/s
2.92121	0.0454071	1.5	16	-0.000193293	dWE(1).Potential/dt < 1E-06 V/s
3.02121	0.0453949	1.6	17	-7.12649e-05	dWE(1).Potential/dt < 1E-06 V/s
3.12121	0.0453796	1.7	18	-0.000198335	dWE(1).Potential/dt < 1E-06 V/s
3.22121	0.0453583	1.8	19	-0.000254276	dWE(1).Potential/dt < 1E-06 V/s
3.32121	0.04534	1.9	20	-0.000137389	dWE(1).Potential/dt < 1E-06 V/s
3.42121	0.0453186	2	21	-0.000249197	dWE(1).Potential/dt < 1E-06 V/s
3.52121	0.0452972	2.1	22	-0.000203426	dWE(1).Potential/dt < 1E-06 V/s
3.62121	0.0452759	2.2	23	-0.000213658	dWE(1).Potential/dt < 1E-06 V/s
3.72121	0.0452576	2.3	24	-0.000157605	dWE(1).Potential/dt < 1E-06 V/s
3.82121	0.0452362	2.4	25	-0.000249222	dWE(1).Potential/dt < 1E-06 V/s
3.92121	0.0452179	2.5	26	-0.000147559	dWE(1).Potential/dt < 1E-06 V/s
4.02121	0.0452057	2.6	27	-8.13107e-05	dWE(1).Potential/dt < 1E-06 V/s
4.12121	0.0451904	2.7	28	-0.000198359	dWE(1).Potential/dt < 1E-06 V/s
4.22121	0.0451752	2.8	29	-0.000142381	dWE(1).Potential/dt < 1E-06 V/s
4.32121	0.0451538	2.9	30	-0.000264521	dWE(1).Potential/dt < 1E-06 V/s
4.42121	0.0451385	3	31	-8.13356e-05	dWE(1).Potential/dt < 1E-06 V/s
4.52121	0.0451202	3.1	32	-0.000228857	dWE(1).Potential/dt < 1E-06 V/s
4.62121	0.045108	3.2	33	-6.10824e-05	dWE(1).Potential/dt < 1E-06 V/s
4.72121	0.0450989	3.3	34	-8.63647e-05	dWE(1).Potential/dt < 1E-06 V/s
4.82121	0.0450806	3.4	35	-0.000269662	dWE(1).Potential/dt < 1E-06 V/s
4.92121	0.0450623	3.5	36	-0.000152576	dWE(1).Potential/dt < 1E-06 V/s
5.02121	0.0450409	3.6	37	-0.00023899	dWE(1).Potential/dt < 1E-06 V/s
5.12121	0.0450195	3.7	38	-0.000203575	dWE(1).Potential/dt < 1E-06 V/s
5.22121	0.0450104	3.8	39	1.02446e-05
5.32121	0.0449921	3.9	40	-0.000300122	dWE(1).Potential/dt < 1E-06 V/s
5.42121	0.0449738	4	41	-0.000152613	dWE(1).Potential/dt < 1E-06 V/s
5.52121	0.0449615	4.1	42	-7.11407e-05	dWE(1).Potential/dt < 1E-06 V/s
5.62121	0.0449463	4.2	43	-0.000198359	dWE(1).Potential/dt < 1E-06 V/s
5.72121	0.0449249	4.3	44	-0.000254338	dWE(1).Potential/dt < 1E-06 V/s
5.82121	0.0449036	4.4	45	-0.000193194	dWE(1).Potential/dt < 1E-06 V/s
5.92121	0.0448792	4.5	46	-0.000269686	dWE(1).Potential/dt < 1E-06 V/s
6.02121	0.0448547	4.6	47	-0.000233837	dWE(1).Potential/dt < 1E-06 V/s
6.12121	0.0448364	4.7	48	-0.000132335	dWE(1).Potential/dt < 1E-06 V/s
6.22121	0.0448212	4.8	49	-0.000147509	dWE(1).Potential/dt < 1E-06 V/s
6.32121	0.0447998	4.9	50	-0.000274653	dWE(1).Potential/dt < 1E-06 V/s
6.42121	0.0447845	5	51	-8.13853e-05	dWE(1).Potential/dt < 1E-06 V/s
6.52121	0.0447662	5.1	52	-0.000228857	dWE(1).Potential/dt < 1E-06 V/s
6.62121	0.0447479	5.2	53	-0.000172953	dWE(1).Potential/dt < 1E-06 V/s
6.72121	0.0447357	5.3	54	-7.1178e-05	dWE(1).Potential/dt < 1E-06 V/s
6.82121	0.0447205	5.4	55	-0.000198397	dWE(1).Potential/dt < 1E-06 V/s
6.92121	0.0447021	5.5	56	-0.000198359	dWE(1).Potential/dt < 1E-06 V/s
7.02121	0.0446899	5.6	57	-6.10079e-05	dWE(1).Potential/dt < 1E-06 V/s
7.12121	0.0446686	5.7	58	-0.000310354	dWE(1).Potential/dt < 1E-06 V/s
7.22121	0.0446533	5.8	59	-7.12028e-05	dWE(1).Potential/dt < 1E-06 V/s
7.32121	0.044632	5.9	60	-0.000284824	dWE(1).Potential/dt < 1E-06 V/s
7.42121	0.0446167	6	61	-8.13853e-05	dWE(1).Potential/dt < 1E-06 V/s
7.52121	0.0446014	6.1	62	-0.000172928	dWE(1).Potential/dt < 1E-06 V/s
7.62121	0.0445801	6.2	63	-0.000264446	dWE(1).Potential/dt < 1E-06 V/s
7.72121	0.0445648	6.3	64	-8.13604e-05	dWE(1).Potential/dt < 1E-06 V/s
7.82121	0.0445465	6.4	65	-0.000228932	dWE(1).Potential/dt < 1E-06 V/s
7.92121	0.0445343	6.5	66	-6.09706e-05	dWE(1).Potential/dt < 1E-06 V/s
8.02121	0.0445221	6.6	67	-0.00014243	dWE(1).Potential/dt < 1E-06 V/s
8.12121	0.0445068	6.7	68	-0.000178044	dWE(1).Potential/dt < 1E-06 V/s
8.22121	0.0444916	6.8	69	-0.00014243	dWE(1).Potential/dt < 1E-06 V/s
8.32121	0.0444794	6.9	70	-9.66714e-05	dWE(1).Potential/dt < 1E-06 V/s
8.42121	0.044458	7	71	-0.000300023	dWE(1).Potential/dt < 1E-06 V/s
8.52121	0.0444458	7.1	72	-1.52613e-05	dWE(1).Potential/dt < 1E-06 V/s
8.62121	0.0444275	7.2	73	-0.000264496	dWE(1).Potential/dt < 1E-06 V/s
8.72121	0.0444092	7.3	74	-0.000162795	dWE(1).Potential/dt < 1E-06 V/s
8.82121	0.0443939	7.4	75	-0.000127169	dWE(1).Potential/dt < 1E-06 V/s
8.92121	0.0443817	7.5	76	-0.000106767	dWE(1).Potential/dt < 1E-06 V/s
9.02121	0.0443756	7.6	77	-2.03898e-05	dWE(1).Potential/dt < 1E-06 V/s
9.12121	0.0443634	7.7	78	-0.000193243	dWE(1).Potential/dt < 1E-06 V/s
9.22121	0.0443481	7.8	79	-0.000157729	dWE(1).Potential/dt < 1E-06 V/s
9.32121	0.044339	7.9	80	-3.04853e-05	dWE(1).Potential/dt < 1E-06 V/s
9.42121	0.0443359	8	81	-2.48353e-08	dWE(1).Potential/dt < 1E-06 V/s
9.52121	0.0443237	8.1	82	-0.000218675	dWE(1).Potential/dt < 1E-06 V/s
9.62121	0.0443115	8.2	83	-9.1605e-05	dWE(1).Potential/dt < 1E-06 V/s
9.72121	0.0443024	8.3	84	-6.61364e-05	dWE(1).Potential/dt < 1E-06 V/s
9.82121	0.0442932	8.4	85	-0.000101688	dWE(1).Potential/dt < 1E-06 V/s
9.92121	0.0442932	8.5	86	7.62443e-05
10.0212	0.044281	8.6	87	-0.000254338	dWE(1).Potential/dt < 1E-06 V/s
10.1212	0.044278	8.7	88	8.65137e-05
10.2212	0.0442657	8.8	89	-0.000228944	dWE(1).Potential/dt < 1E-06 V/s
10.3212	0.0442596	8.9	90	2.04146e-05
10.4212	0.0442535	9	91	-8.14225e-05	dWE(1).Potential/dt < 1E-06 V/s
10.5212	0.0442383	9.1	92	-0.000228832	dWE(1).Potential/dt < 1E-06 V/s
10.6212	0.0442291	9.2	93	-1.0108e-05	dWE(1).Potential/dt < 1E-06 V/s
10.7212	0.0442169	9.3	94	-0.000167874	dWE(1).Potential/dt < 1E-06 V/s
10.8212	0.0442108	9.4	95	-8.69235e-08	dWE(1).Potential/dt < 1E-06 V/s
10.9212	0.0442017	9.5	96	-0.000137265	dWE(1).Potential/dt < 1E-06 V/s
11.0212	0.0441956	9.6	97	-2.55431e-05	dWE(1).Potential/dt < 1E-06 V/s
11.1212	0.0441864	9.7	98	-0.000127082	dWE(1).Potential/dt < 1E-06 V/s
11.2212	0.0441833	9.8	99	3.04853e-05
11.3212	0.0441772	9.9	100	-0.000106817	dWE(1).Potential/dt < 1E-06 V/s
11.4212	0.0441772	10	101	6.10824e-05
11.5212	0.044162	10.1	102	-0.000300085	dWE(1).Potential/dt < 1E-06 V/s
11.6212	0.0441559	10.2	103	6.61736e-05
11.7212	0.0441406	10.3	104	-0.000259467	dWE(1).Potential/dt < 1E-06 V/s
11.8212	0.0441467	10.4	105	0.000269525
11.9212	0.0441437	10.5	106	-0.000177932	dWE(1).Potential/dt < 1E-06 V/s
12.0212	0.0441406	10.6	107	-1.24176e-08	dWE(1).Potential/dt < 1E-06 V/s
[...]
55.7212	0.0420074	54.3	544	-0.000111833	dWE(1).Potential/dt < 1E-06 V/s
55.8212	0.0420074	54.4	545	4.57466e-05
55.9212	0.0420044	54.5	546	-6.60991e-05	dWE(1).Potential/dt < 1E-06 V/s
56.0212	0.0419983	54.6	547	-7.63934e-05	dWE(1).Potential/dt < 1E-06 V/s
56.1212	0.0420013	54.7	548	0.000117074
56.2212	0.0419952	54.8	549	-0.000167899	dWE(1).Potential/dt < 1E-06 V/s
56.3212	0.0419952	54.9	550	8.14349e-05
56.4212	0.0419891	55	551	-0.000132198	dWE(1).Potential/dt < 1E-06 V/s
56.5212	0.0419891	55.1	552	7.11407e-05
56.6212	0.0419861	55.2	553	-7.62816e-05	dWE(1).Potential/dt < 1E-06 V/s
56.7212	0.041983	55.3	554	-2.03774e-05	dWE(1).Potential/dt < 1E-06 V/s
56.8212	0.04198	55.4	555	-3.05102e-05	dWE(1).Potential/dt < 1E-06 V/s
56.9212	0.0419769	55.5	556	-3.04729e-05	dWE(1).Potential/dt < 1E-06 V/s
57.0212	0.0419739	55.6	557	-3.05226e-05	dWE(1).Potential/dt < 1E-06 V/s
57.1212	0.0419708	55.7	558	-3.0535e-05	dWE(1).Potential/dt < 1E-06 V/s
57.2212	0.0419708	55.8	559	2.5481e-05
57.3212	0.0419617	55.9	560	-0.000178032	dWE(1).Potential/dt < 1E-06 V/s
57.4212	0.0419617	56	561	0.000106817
57.5212	0.0419556	56.1	562	-0.000142381	dWE(1).Potential/dt < 1E-06 V/s
57.6212	0.0419525	56.2	563	1.51992e-05
57.7212	0.0419495	56.3	564	-4.06802e-05	dWE(1).Potential/dt < 1E-06 V/s
57.8212	0.0419495	56.4	565	2.54562e-05
57.9212	0.0419403	56.5	566	-0.000177945	dWE(1).Potential/dt < 1E-06 V/s
58.0212	0.0419342	56.6	567	-5.15332e-06	dWE(1).Potential/dt < 1E-06 V/s
58.1212	0.0419281	56.7	568	-7.11159e-05	dWE(1).Potential/dt < 1E-06 V/s
58.2212	0.041925	56.8	569	-5.14091e-06	dWE(1).Potential/dt < 1E-06 V/s
58.3212	0.0419159	56.9	570	-0.000152576	dWE(1).Potential/dt < 1E-06 V/s
58.4212	0.0419159	57	571	9.66465e-05
58.5212	0.0419128	57.1	572	-8.64517e-05	dWE(1).Potential/dt < 1E-06 V/s
58.6212	0.0419098	57.2	573	-2.03649e-05	dWE(1).Potential/dt < 1E-06 V/s
58.7212	0.0419098	57.3	574	2.5481e-05
58.8212	0.0419067	57.4	575	-6.61736e-05	dWE(1).Potential/dt < 1E-06 V/s
58.9212	0.0418976	57.5	576	-0.000132198	dWE(1).Potential/dt < 1E-06 V/s
59.0212	0.0418945	57.6	577	4.06554e-05
59.1212	0.0418884	57.7	578	-0.000106817	dWE(1).Potential/dt < 1E-06 V/s
59.2212	0.0418793	57.8	579	-0.000106705	dWE(1).Potential/dt < 1E-06 V/s
59.3212	0.0418701	57.9	580	-8.14349e-05	dWE(1).Potential/dt < 1E-06 V/s
59.4212	0.0418701	58	581	7.63064e-05
59.5212	0.041861	58.1	582	-0.000198409	dWE(1).Potential/dt < 1E-06 V/s
59.6212	0.0418549	58.2	583	-5.0664e-06	dWE(1).Potential/dt < 1E-06 V/s
59.7212	0.0418518	58.3	584	-1.52489e-05	dWE(1).Potential/dt < 1E-06 V/s
59.8212	0.0418457	58.4	585	-9.67335e-05	dWE(1).Potential/dt < 1E-06 V/s
59.9212	0.0418396	58.5	586	-5.0813e-05	dWE(1).Potential/dt < 1E-06 V/s
60.0212	0.0418335	58.6	587	-6.10079e-05	dWE(1).Potential/dt < 1E-06 V/s
60.1212	0.0418304	58.7	588	-5.14091e-06	dWE(1).Potential/dt < 1E-06 V/s
60.2212	0.0418213	58.8	589	-0.000152538	dWE(1).Potential/dt < 1E-06 V/s
60.3212	0.0418213	58.9	590	9.65845e-05
60.4212	0.0418121	59	591	-0.000198409	dWE(1).Potential/dt < 1E-06 V/s
60.5212	0.041803	59.1	592	-6.09086e-05	dWE(1).Potential/dt < 1E-06 V/s
60.6212	0.0417938	59.2	593	-9.1605e-05	dWE(1).Potential/dt < 1E-06 V/s
60.7212	0.0417877	59.3	594	-3.55517e-05	dWE(1).Potential/dt < 1E-06 V/s
60.8212	0.0417786	59.4	595	-0.000127182	dWE(1).Potential/dt < 1E-06 V/s
60.9212	0.0417725	59.5	596	-2.53817e-05	dWE(1).Potential/dt < 1E-06 V/s
61.0212	0.0417633	59.6	597	-0.000127182	dWE(1).Potential/dt < 1E-06 V/s
61.1212	0.0417542	59.7	598	-8.14101e-05	dWE(1).Potential/dt < 1E-06 V/s
61.2212	0.041748	59.8	599	-3.5589e-05	dWE(1).Potential/dt < 1E-06 V/s
61.3212	0.0417389	59.9	600	-0.000127206	dWE(1).Potential/dt < 1E-06 V/s

File: OCP_GNP0.1%_SF1.txt
Time (s)	WE(1).Potential (V)	Corrected time (s)	Index	dWE(1).Potential/dt (V/s)	Cutoffs	OCP value (V)
1.52776	0.00517883	0	1	0	dWE(1).Potential/dt < 1E-06 V/s	0.0127262
1.62776	0.00511475	0.1	2	-0.000640867	dWE(1).Potential/dt < 1E-06 V/s
1.72776	0.005078125	0.2	3	-0.000228889	dWE(1).Potential/dt < 1E-06 V/s
1.82776	0.00508423	0.3	4	0.00032553
1.92776	0.00505371	0.4	5	-0.000752767	dWE(1).Potential/dt < 1E-06 V/s
2.02776	0.00502625	0.5	6	-0.00012716	dWE(1).Potential/dt < 1E-06 V/s
2.12776	0.00499878	0.6	7	-0.00028482	dWE(1).Potential/dt < 1E-06 V/s
2.22776	0.00496826	0.7	8	-0.000330617	dWE(1).Potential/dt < 1E-06 V/s
2.32776	0.0049408	0.8	9	-0.000239063	dWE(1).Potential/dt < 1E-06 V/s
2.42776	0.00493469	0.9	10	0.000106815
2.52776	0.00492554	1	11	-0.000188191	dWE(1).Potential/dt < 1E-06 V/s
2.62776	0.00491638	1.1	12	-8.13759e-05	dWE(1).Potential/dt < 1E-06 V/s
2.72776	0.00489502	1.2	13	-0.000315357	dWE(1).Potential/dt < 1E-06 V/s
2.82776	0.00487366	1.3	14	-0.000172931	dWE(1).Potential/dt < 1E-06 V/s
2.92776	0.0048645	1.4	15	1.01732e-05
3.02776	0.00484009	1.5	16	-0.000411983	dWE(1).Potential/dt < 1E-06 V/s
3.12776	0.00486145	1.6	17	0.000645955
3.22776	0.00483093	1.7	18	-0.0008901	dWE(1).Potential/dt < 1E-06 V/s
3.32776	0.00485229	1.8	19	0.000818885
3.42776	0.00483704	1.9	20	-0.000630694	dWE(1).Potential/dt < 1E-06 V/s
3.52776	0.00482178	2	21	-3.05179e-05	dWE(1).Potential/dt < 1E-06 V/s
3.62776	0.00481873	2.1	22	7.12028e-05
3.72776	0.00479736	2.2	23	-0.000406901	dWE(1).Potential/dt < 1E-06 V/s
3.82776	0.004776	2.3	24	-0.000152582	dWE(1).Potential/dt < 1E-06 V/s
3.92776	0.00465393	2.4	25	-0.00205994	dWE(1).Potential/dt < 1E-06 V/s
4.02776	0.00462952	2.5	26	0.000905354
4.12776	0.00465698	2.6	27	0.000381483
4.22776	0.00471191	2.7	28	0.000605255
4.32776	0.0047699	2.8	29	0.00051372
4.42776	0.00480042	2.9	30	6.61147e-05
4.52776	0.00483093	3	31	0.000396728
4.62776	0.0048645	3.1	32	0.000361116
4.72776	0.00487671	3.2	33	-6.61131e-05	dWE(1).Potential/dt < 1E-06 V/s
4.82776	0.00489502	3.3	34	0.000305162
4.92776	0.00492859	3.4	35	0.000442512
5.02776	0.00489502	3.5	36	-0.000946052	dWE(1).Potential/dt < 1E-06 V/s
5.12776	0.00490112	3.6	37	0.000615446
5.22776	0.00495911	3.7	38	0.000879921
5.32776	0.00502319	3.8	39	0.000518806
5.42776	0.00516663	3.9	40	0.0020752
5.52776	0.00527954	4	41	0.000610346
5.62776	0.00535583	4.1	42	0.000559493
5.72776	0.00530396	4.2	43	-0.00146484	dWE(1).Potential/dt < 1E-06 V/s
5.82776	0.00508728	4.3	44	-0.00311281	dWE(1).Potential/dt < 1E-06 V/s
5.92776	0.00517883	4.4	45	0.00403342
6.02776	0.00567627	4.5	46	0.00732932
6.12776	0.00551453	4.6	47	-0.00846356	dWE(1).Potential/dt < 1E-06 V/s
6.22776	0.00535889	4.7	48	0.000691745
6.32776	0.00542603	4.8	49	0.00250753
6.42776	0.00557861	4.9	50	0.00149536
6.52776	0.00424805	5	51	-0.0259501	dWE(1).Potential/dt < 1E-06 V/s
6.62776	0.00499268	5.1	52	0.0296835
6.72776	0.00538635	5.2	53	-0.00590516	dWE(1).Potential/dt < 1E-06 V/s
6.82776	0.00535278	5.3	54	-0.00272624	dWE(1).Potential/dt < 1E-06 V/s
6.92776	0.00540161	5.4	55	0.00259908
7.02776	0.00547485	5.5	56	0.000661209
7.12776	0.00553589	5.6	57	0.000427245
7.22776	0.00558777	5.7	58	0.000483202
7.32776	0.00566406	5.8	59	0.00099691
7.42776	0.00571899	5.9	60	0.000289912
7.52776	0.00577087	6	61	0.000564584
7.62776	0.00579529	6.1	62	2.5422e-05
7.72776	0.00585632	6.2	63	0.00100708
7.82776	0.00595398	6.3	64	0.00115967
7.92776	0.00599976	6.4	65	-9.66372e-05	dWE(1).Potential/dt < 1E-06 V/s
8.02776	0.00604248	6.5	66	0.000574748
8.12776	0.00611267	6.6	67	0.000940963
8.22776	0.00617676	6.7	68	0.000498441
8.32776	0.00622864	6.8	69	0.00043743
8.42776	0.00629883	6.9	70	0.000895174
8.52776	0.00636292	7	71	0.000528976
8.62776	0.00642395	7.1	72	0.000605264
8.72776	0.00649414	7.2	73	0.000788375
8.82776	0.00656433	7.3	74	0.000671385
8.92776	0.00665588	7.4	75	0.00109355
9.02776	0.00670166	7.5	76	5.08968e-06
9.12776	0.0067627	7.6	77	0.0008901
9.22776	0.00681152	7.7	78	0.000335689
9.32776	0.00689087	7.8	79	0.00108847
9.42776	0.00697327	7.9	80	0.00074767
9.52776	0.00703735	8	81	0.000478118
9.62776	0.00713501	8.1	82	0.00131733
9.72776	0.00720825	8.2	83	0.000417084
9.82776	0.00729065	8.3	84	0.000981637
9.92776	0.0073761	8.4	85	0.000849421
10.0278	0.0074585	8.5	86	0.000788354
10.1278	0.00754089	8.6	87	0.000834171
10.2278	0.00761719	8.7	88	0.00071206
10.3278	0.00771179	8.8	89	0.00111897
10.4278	0.00777588	8.9	90	0.000325525
10.5278	0.00786133	9	91	0.00113425
10.6278	0.00793457	9.1	92	0.000559472
10.7278	0.00801697	9.2	93	0.000940977
10.8278	0.00809326	9.3	94	0.000681564
10.9278	0.0081665	9.4	95	0.000727339
11.0278	0.00823975	9.5	96	0.000742581
11.1278	0.00829773	9.6	97	0.000452679
11.2278	0.00836487	9.7	98	0.000798563
11.3278	0.00844116	9.8	99	0.000808699
11.4278	0.00852051	9.9	100	0.000788375
11.5278	0.00857544	10	101	0.000335696
11.6278	0.00862427	10.1	102	0.000518806
11.7278	0.0086853	10.2	103	0.000732411
11.8278	0.00875549	10.3	104	0.000737496
11.9278	0.00881348	10.4	105	0.000447603
12.0278	0.00887146	10.5	106	0.000620532
12.1278	0.00891418	10.6	107	0.000300088
12.2278	0.00896912	10.7	108	0.000701889
12.3278	0.00901489	10.8	109	0.000340796
12.4278	0.00905151	10.9	110	0.000320447
12.5278	0.00909729	11	111	0.000564559
12.6278	0.00915833	11.1	112	0.000706989
12.7278	0.0092041	11.2	113	0.000279742
12.8278	0.00924377	11.3	114	0.000396716
12.9278	0.00925903	11.4	115	-3.05008e-05	dWE(1).Potential/dt < 1E-06 V/s
13.0278	0.0092926	11.5	116	0.000569669
13.1278	0.00933533	11.6	117	0.000442494
13.2278	0.00937805	11.7	118	0.000396734
13.3278	0.00939941	11.8	119	3.56014e-05
13.4278	0.00942993	11.9	120	0.000452676
13.5278	0.0094574	12	121	0.000218706
13.6278	0.0094574	12.1	122	-0.0002187	dWE(1).Potential/dt < 1E-06 V/s
13.7278	0.00953369	12.2	123	0.00149028
13.8278	0.00954895	12.3	124	-0.000610349	dWE(1).Potential/dt < 1E-06 V/s
13.9278	0.00957642	12.4	125	0.000579833
14.0278	0.00958557	12.5	126	-0.000101722	dWE(1).Potential/dt < 1E-06 V/s
14.1278	0.00960999	12.6	127	0.000432311
14.2278	0.00962219	12.7	128	-3.05039e-05	dWE(1).Potential/dt < 1E-06 V/s
14.3278	0.00965271	12.8	129	0.000498441
14.4278	0.00968933	12.9	130	0.000356042
14.5278	0.00969849	13	131	-0.000157685	dWE(1).Potential/dt < 1E-06 V/s
14.6278	0.00970764	13.1	132	0.000183117
14.7278	0.00973816	13.2	133	0.000483183
14.8278	0.00973816	13.3	134	-0.000325522	dWE(1).Potential/dt < 1E-06 V/s
14.9278	0.009765625	13.4	135	0.000605258
15.0278	0.00978394	13.5	136	1.52706e-05
15.1278	0.00978088	13.6	137	-0.000178035	dWE(1).Potential/dt < 1E-06 V/s
15.2278	0.00978699	13.7	138	0.000208554
15.3278	0.0098053	13.8	139	0.000254298
15.4278	0.0098053	13.9	140	-0.000193281	dWE(1).Potential/dt < 1E-06 V/s
15.5278	0.00979614	14	141	-0.00010681	dWE(1).Potential/dt < 1E-06 V/s
15.6278	0.0098114	14.1	142	0.000386555
15.7278	0.00983887	14.2	143	0.000295
15.8278	0.00984497	14.3	144	-0.000157654	dWE(1).Potential/dt < 1E-06 V/s
15.9278	0.00983276	14.4	145	-0.000203463	dWE(1).Potential/dt < 1E-06 V/s
16.0278	0.00983887	14.5	146	0.000274657
16.1278	0.00985413	14.6	147	0.000167859
16.2278	0.00986328	14.7	148	1.01887e-05
16.3278	0.00986328	14.8	149	-5.59508e-05	dWE(1).Potential/dt < 1E-06 V/s
16.4278	0.00985107	14.9	150	-0.00019329	dWE(1).Potential/dt < 1E-06 V/s
16.5278	0.00984802	15	151	8.64827e-05
16.6278	0.00983887	15.1	152	-0.000172947	dWE(1).Potential/dt < 1E-06 V/s
[...]
54.0278	0.0121216	52.5	526	0.000218734
54.1278	0.0121368	52.6	527	8.64641e-05
54.2278	0.0121674	52.7	528	0.000462858
54.3278	0.0121948	52.8	529	0.000198366
54.4278	0.0122223	52.9	530	0.000284817
54.5278	0.0122498	53	531	0.00027466
54.6278	0.0122681	53.1	532	0.000106826
54.7278	0.0122955	53.2	533	0.000381458
54.8278	0.0123199	53.3	534	0.000188217
54.9278	0.0123352	53.4	535	8.64641e-05
55.0278	0.0123535	53.5	536	0.000239043
55.1278	0.0123657	53.6	537	6.10514e-05
55.2278	0.0123932	53.7	538	0.000422157
55.3278	0.0124146	53.8	539	0.000111877
55.4278	0.0124268	53.9	540	6.61426e-05
55.5278	0.0124359	54	541	9.6631e-05
55.6278	0.0124481	54.1	542	0.000157673
55.7278	0.0124756	54.2	543	0.000391646
55.8278	0.0124847	54.3	544	-0.000111895	dWE(1).Potential/dt < 1E-06 V/s
55.9278	0.0125031	54.4	545	0.000320428
56.0278	0.0125275	54.5	546	0.00026449
56.1278	0.0125275	54.6	547	-0.000223794	dWE(1).Potential/dt < 1E-06 V/s
56.2278	0.0125427	54.7	548	0.000361124
56.3278	0.012558	54.8	549	0.000101725
56.4278	0.0125671	54.9	550	4.06802e-05
56.5278	0.0125671	55	551	-5.59539e-05	dWE(1).Potential/dt < 1E-06 V/s
56.6278	0.0125854	55.1	552	0.000366209
56.7278	0.0125885	55.2	553	-0.000157661	dWE(1).Potential/dt < 1E-06 V/s
56.8278	0.0125916	55.3	554	8.1379e-05
56.9278	0.0126129	55.4	555	0.000366187
57.0278	0.0126251	55.5	556	-1.52365e-05	dWE(1).Potential/dt < 1E-06 V/s
57.1278	0.0126465	55.6	557	0.000320422
57.2278	0.0126587	55.7	558	1.52675e-05
57.3278	0.0126556	55.8	559	-0.00012715	dWE(1).Potential/dt < 1E-06 V/s
57.4278	0.012674	55.9	560	0.000411971
57.5278	0.0126801	56	561	-0.000111889	dWE(1).Potential/dt < 1E-06 V/s
57.6278	0.0126892	56.1	562	0.000157661
57.7278	0.0127014	56.2	563	0.000137345
57.8278	0.0126892	56.3	564	-0.000335711	dWE(1).Potential/dt < 1E-06 V/s
57.9278	0.0126953	56.4	565	0.000295012
58.0278	0.0127045	56.5	566	5.59353e-05
58.1278	0.0127014	56.6	567	-0.000142399	dWE(1).Potential/dt < 1E-06 V/s
58.2278	0.0127228	56.7	568	0.000457752
58.3278	0.012735	56.8	569	-3.55952e-05	dWE(1).Potential/dt < 1E-06 V/s
58.4278	0.0127289	56.9	570	-0.000183104	dWE(1).Potential/dt < 1E-06 V/s
58.5278	0.0127502	57	571	0.000503514
58.6278	0.0127502	57.1	572	-0.000269568	dWE(1).Potential/dt < 1E-06 V/s
58.7278	0.0127472	57.2	573	1.52706e-05
58.8278	0.0128021	57.3	574	0.00104268
58.9278	0.0128021	57.4	575	-0.000651039	dWE(1).Potential/dt < 1E-06 V/s
59.0278	0.0128418	57.5	576	0.000910431
59.1278	0.0128632	57.6	577	-7.12028e-05	dWE(1).Potential/dt < 1E-06 V/s
59.2278	0.0127716	57.7	578	-0.00179545	dWE(1).Potential/dt < 1E-06 V/s
59.3278	0.0127625	57.8	579	0.000971488
59.4278	0.0127594	57.9	580	-0.000254313	dWE(1).Potential/dt < 1E-06 V/s
59.5278	0.0127625	58	581	6.10327e-05
59.6278	0.0127686	58.1	582	6.61178e-05
59.7278	0.0127655	58.2	583	-0.000116977	dWE(1).Potential/dt < 1E-06 V/s
59.8278	0.0127686	58.3	584	0.000111889
59.9278	0.0127716	58.4	585	1.01856e-05
60.0278	0.0127747	58.5	586	3.05164e-05
60.1278	0.0127838	58.6	587	0.000142396
60.2278	0.0127777	58.7	588	-0.000208505	dWE(1).Potential/dt < 1E-06 V/s
60.3278	0.0127747	58.8	589	4.57683e-05
60.4278	0.0127716	58.9	590	-4.07019e-05	dWE(1).Potential/dt < 1E-06 V/s
60.5278	0.0127747	59	591	8.13915e-05
60.6278	0.0127777	59.1	592	1.01669e-05
60.7278	0.0127808	59.2	593	3.05102e-05
60.8278	0.0127716	59.3	594	-0.000193271	dWE(1).Potential/dt < 1E-06 V/s
60.9278	0.0127747	59.4	595	0.000172934
61.0278	0.0127747	59.5	596	-6.61302e-05	dWE(1).Potential/dt < 1E-06 V/s
61.1278	0.0127808	59.6	597	0.000122053
61.2278	0.0127655	59.7	598	-0.000350951	dWE(1).Potential/dt < 1E-06 V/s
61.3278	0.0127747	59.8	599	0.000366218
61.4278	0.0127808	59.9	600	-4.58025e-05	dWE(1).Potential/dt < 1E-06 V/s