Folder: Streamlit_cement_impedance/data/Z_measu_on_silk_fibroin (part 3)

File: OCP_GNP1%_IV.txt
Time (s)	WE(1).Potential (V)	Corrected time (s)	Index	dWE(1).Potential/dt (V/s)	Cutoffs	OCP value (V)
1.50774	-0.0578918	0	1	0	dWE(1).Potential/dt < 1E-06 V/s	-0.0486064
1.60774	-0.0578308	0.1	2	0.000610352
1.70774	-0.0577698	0.2	3	0.000610352
1.80774	-0.0577087	0.3	4	0.000610352
1.90774	-0.0576782	0.4	5	5.08627e-05
2.00774	-0.0576172	0.5	6	0.000966391
2.10774	-0.0575867	0.6	7	-5.08627e-05	dWE(1).Potential/dt < 1E-06 V/s
2.20774	-0.0575256	0.7	8	0.000966391
2.30774	-0.0574646	0.8	9	0.000508627
2.40774	-0.0574036	0.9	10	0.000610352
2.50774	-0.057373	1	11	5.08627e-05
2.60774	-0.057312	1.1	12	0.000966391
2.70774	-0.057251	1.2	13	0.000508627
2.80774	-0.0572205	1.3	14	5.08627e-05
2.90774	-0.0571594	1.4	15	0.000966391
3.00774	-0.0571289	1.5	16	-5.08627e-05	dWE(1).Potential/dt < 1E-06 V/s
3.10774	-0.0570679	1.6	17	0.000966391
3.20774	-0.0570068	1.7	18	0.000508627
3.30774	-0.0569458	1.8	19	0.000610352
3.40774	-0.0568848	1.9	20	0.000610352
3.50774	-0.0568542	2	21	5.08627e-05
3.60774	-0.0567932	2.1	22	0.000966391
3.70774	-0.0567322	2.2	23	0.000508627
3.80774	-0.0567017	2.3	24	5.08627e-05
3.90774	-0.0566406	2.4	25	0.000966391
4.00774	-0.0565796	2.5	26	0.000508627
4.10774	-0.0565186	2.6	27	0.000610352
4.20774	-0.056488	2.7	28	5.08627e-05
4.30774	-0.056427	2.8	29	0.000966391
4.40774	-0.056366	2.9	30	0.000508627
4.50774	-0.0563049	3	31	0.000610352
4.60774	-0.0562744	3.1	32	5.08627e-05
4.70774	-0.0562134	3.2	33	0.000966391
4.80774	-0.0561523	3.3	34	0.000508627
4.90774	-0.0561218	3.4	35	5.08627e-05
5.00774	-0.0560608	3.5	36	0.000966391
5.10774	-0.0559998	3.6	37	0.000508627
5.20774	-0.0559692	3.7	38	5.08627e-05
5.30774	-0.0559082	3.8	39	0.000966391
5.40774	-0.0558777	3.9	40	-5.08627e-05	dWE(1).Potential/dt < 1E-06 V/s
5.50774	-0.0558167	4	41	0.000966391
5.60774	-0.0557556	4.1	42	0.000508627
5.70774	-0.0557251	4.2	43	5.08627e-05
5.80774	-0.0556641	4.3	44	0.000966391
5.90774	-0.055603	4.4	45	0.000508627
6.00774	-0.0555725	4.5	46	5.08627e-05
6.10774	-0.0555115	4.6	47	0.000966391
6.20774	-0.055481	4.7	48	-5.08627e-05	dWE(1).Potential/dt < 1E-06 V/s
6.30774	-0.0554199	4.8	49	0.000966391
6.40774	-0.0553894	4.9	50	-5.08627e-05	dWE(1).Potential/dt < 1E-06 V/s
6.50774	-0.0553284	5	51	0.000966391
6.60774	-0.0552673	5.1	52	0.000508627
6.70774	-0.0552368	5.2	53	5.08627e-05
6.80774	-0.0551758	5.3	54	0.000966391
6.90774	-0.0551453	5.4	55	-5.08627e-05	dWE(1).Potential/dt < 1E-06 V/s
7.00774	-0.0550842	5.5	56	0.000966391
7.10774	-0.0550537	5.6	57	-5.08627e-05	dWE(1).Potential/dt < 1E-06 V/s
7.20774	-0.0549927	5.7	58	0.000966391
7.30774	-0.0549622	5.8	59	-5.08627e-05	dWE(1).Potential/dt < 1E-06 V/s
7.40774	-0.0549011	5.9	60	0.000966391
7.50774	-0.0548401	6	61	0.000508627
7.60774	-0.0548096	6.1	62	5.08627e-05
7.70774	-0.0547485	6.2	63	0.000966391
7.80774	-0.054718	6.3	64	-5.08627e-05	dWE(1).Potential/dt < 1E-06 V/s
7.90774	-0.054657	6.4	65	0.000966391
8.00774	-0.0546265	6.5	66	-5.08627e-05	dWE(1).Potential/dt < 1E-06 V/s
8.10774	-0.0545654	6.6	67	0.000966391
8.20774	-0.0545349	6.7	68	-5.08627e-05	dWE(1).Potential/dt < 1E-06 V/s
8.30774	-0.0544739	6.8	69	0.000966391
8.40774	-0.0544434	6.9	70	-5.08627e-05	dWE(1).Potential/dt < 1E-06 V/s
8.50774	-0.0543823	7	71	0.000966391
8.60774	-0.0543518	7.1	72	-5.08627e-05	dWE(1).Potential/dt < 1E-06 V/s
8.70774	-0.0542908	7.2	73	0.000966391
8.80774	-0.0542603	7.3	74	-5.08627e-05	dWE(1).Potential/dt < 1E-06 V/s
8.90774	-0.0541992	7.4	75	0.000966391
9.00774	-0.0541687	7.5	76	-5.08627e-05	dWE(1).Potential/dt < 1E-06 V/s
9.10774	-0.0541077	7.6	77	0.000966391
9.20774	-0.0540771	7.7	78	-5.08627e-05	dWE(1).Potential/dt < 1E-06 V/s
9.30774	-0.0540161	7.8	79	0.000966391
9.40774	-0.0539551	7.9	80	0.000508627
9.50774	-0.0539246	8	81	5.08627e-05
9.60774	-0.053894	8.1	82	0.000406901
9.70774	-0.053833	8.2	83	0.000864666
9.80774	-0.0538025	8.3	84	-5.08627e-05	dWE(1).Potential/dt < 1E-06 V/s
9.90774	-0.0537415	8.4	85	0.000966391
10.0077	-0.0537109	8.5	86	-5.08627e-05	dWE(1).Potential/dt < 1E-06 V/s
10.1077	-0.0536804	8.6	87	0.000406901
10.2077	-0.0536194	8.7	88	0.000864666
10.3077	-0.0535889	8.8	89	-5.08627e-05	dWE(1).Potential/dt < 1E-06 V/s
10.4077	-0.0535278	8.9	90	0.000966391
10.5077	-0.0534973	9	91	-5.08627e-05	dWE(1).Potential/dt < 1E-06 V/s
10.6077	-0.0534363	9.1	92	0.000966391
10.7077	-0.0534058	9.2	93	-5.08627e-05	dWE(1).Potential/dt < 1E-06 V/s
10.8077	-0.0533447	9.3	94	0.000966391
10.9077	-0.0533142	9.4	95	-5.08627e-05	dWE(1).Potential/dt < 1E-06 V/s
11.0077	-0.0532837	9.5	96	0.000406901
11.1077	-0.0532227	9.6	97	0.000864666
11.2077	-0.0531921	9.7	98	-5.08627e-05	dWE(1).Potential/dt < 1E-06 V/s
11.3077	-0.0531311	9.8	99	0.000966391
11.4077	-0.0531006	9.9	100	-5.08627e-05	dWE(1).Potential/dt < 1E-06 V/s
11.5077	-0.0530396	10	101	0.000966391
11.6077	-0.053009	10.1	102	-5.08627e-05	dWE(1).Potential/dt < 1E-06 V/s
11.7077	-0.0529785	10.2	103	0.000406901
11.8077	-0.0529175	10.3	104	0.000864666
11.9077	-0.052887	10.4	105	-5.08627e-05	dWE(1).Potential/dt < 1E-06 V/s
12.0077	-0.0528259	10.5	106	0.000966391
12.1077	-0.0527954	10.6	107	-5.08627e-05	dWE(1).Potential/dt < 1E-06 V/s
12.2077	-0.0527649	10.7	108	0.000406901
12.3077	-0.0527039	10.8	109	0.000864666
12.4077	-0.0526733	10.9	110	-5.08627e-05	dWE(1).Potential/dt < 1E-06 V/s
12.5077	-0.0526123	11	111	0.000966391
12.6077	-0.0525818	11.1	112	-5.08627e-05	dWE(1).Potential/dt < 1E-06 V/s
12.7077	-0.0525513	11.2	113	0.000406901
12.8077	-0.0525208	11.3	114	0.000305176
12.9077	-0.0524597	11.4	115	0.000864666
13.0077	-0.0524292	11.5	116	-5.08627e-05	dWE(1).Potential/dt < 1E-06 V/s
13.1077	-0.0523987	11.6	117	0.000406901
13.2077	-0.0523682	11.7	118	0.000305176
13.3077	-0.0523376	11.8	119	0.000305176
13.4077	-0.0523071	11.9	120	0.000305176
13.5077	-0.0522461	12	121	0.000864666
13.6077	-0.0522156	12.1	122	-5.08627e-05	dWE(1).Potential/dt < 1E-06 V/s
13.7077	-0.0521851	12.2	123	0.000406901
13.8077	-0.0521545	12.3	124	0.000305176
13.9077	-0.052124	12.4	125	0.000305176
14.0077	-0.0520935	12.5	126	0.000305176
14.1077	-0.052063	12.6	127	0.000305176
14.2077	-0.0520325	12.7	128	0.000305176
14.3077	-0.052002	12.8	129	0.000305176
14.4077	-0.0519714	12.9	130	0.000305176
14.5077	-0.0519409	13	131	0.000305176
14.6077	-0.0518799	13.1	132	0.000864666
14.7077	-0.0518799	13.2	133	-0.000610352	dWE(1).Potential/dt < 1E-06 V/s
14.8077	-0.0518188	13.3	134	0.00132243
14.9077	-0.0517883	13.4	135	-0.000152588	dWE(1).Potential/dt < 1E-06 V/s
15.0077	-0.0517578	13.5	136	0.000406901
15.1077	-0.0517273	13.6	137	0.000305176
15.2077	-0.0516968	13.7	138	0.000305176
15.3077	-0.0516357	13.8	139	0.000864666
15.4077	-0.0516052	13.9	140	-5.08627e-05	dWE(1).Potential/dt < 1E-06 V/s
15.5077	-0.0515747	14	141	0.000406901
15.6077	-0.0515442	14.1	142	0.000305176
15.7077	-0.0515137	14.2	143	0.000305176
15.8077	-0.0514832	14.3	144	0.000305176
15.9077	-0.0514526	14.4	145	0.000305176
16.0077	-0.0514221	14.5	146	0.000305176
16.1077	-0.0513916	14.6	147	0.000305176
16.2077	-0.0513306	14.7	148	0.000864666
16.3077	-0.0513	14.8	149	-5.08627e-05	dWE(1).Potential/dt < 1E-06 V/s
16.4077	-0.0512695	14.9	150	0.000406901
16.5077	-0.051239	15	151	0.000305176
16.6077	-0.0512085	15.1	152	0.000305176
16.7077	-0.051178	15.2	153	0.000305176
16.8077	-0.0511475	15.3	154	0.000305176
16.9077	-0.0511169	15.4	155	0.000305176
17.0077	-0.0510864	15.5	156	0.000305176
17.1077	-0.0510559	15.6	157	0.000305176
[...]
24.3077	-0.0491638	22.8	229	0.000203451
24.4077	-0.0491638	22.9	230	-0.000254313	dWE(1).Potential/dt < 1E-06 V/s
24.5077	-0.0491333	23	231	0.000661215
24.6077	-0.0491028	23.1	232	0.000203451
24.7077	-0.0490723	23.2	233	0.000305176
24.8077	-0.0490417	23.3	234	0.000305176
24.9077	-0.0490417	23.4	235	-0.000254313	dWE(1).Potential/dt < 1E-06 V/s
25.0077	-0.0490112	23.5	236	0.000661215
25.1077	-0.0490112	23.6	237	-0.000356039	dWE(1).Potential/dt < 1E-06 V/s
25.2077	-0.0489807	23.7	238	0.000661215
25.3077	-0.0489502	23.8	239	0.000203451
25.4077	-0.0489197	23.9	240	0.000305176
25.5077	-0.0488892	24	241	0.000305176
25.6077	-0.0488892	24.1	242	-0.000254313	dWE(1).Potential/dt < 1E-06 V/s
25.7077	-0.0488892	24.2	243	0.000101725
25.8077	-0.0488586	24.3	244	0.000559489
25.9077	-0.0488281	24.4	245	0.000203451
26.0077	-0.0488281	24.5	246	-0.000254313	dWE(1).Potential/dt < 1E-06 V/s
26.1077	-0.0487976	24.6	247	0.000661215
26.2077	-0.0487976	24.7	248	-0.000356039	dWE(1).Potential/dt < 1E-06 V/s
26.3077	-0.0487976	24.8	249	0.000101725
26.4077	-0.0487671	24.9	250	0.000559489
26.5077	-0.0487366	25	251	0.000203451
26.6077	-0.0487366	25.1	252	-0.000254313	dWE(1).Potential/dt < 1E-06 V/s
26.7077	-0.0487061	25.2	253	0.000661215
26.8077	-0.0487061	25.3	254	-0.000356039	dWE(1).Potential/dt < 1E-06 V/s
26.9077	-0.0487061	25.4	255	0.000101725
27.0077	-0.0486755	25.5	256	0.000559489
27.1077	-0.0486755	25.6	257	-0.000356039	dWE(1).Potential/dt < 1E-06 V/s
27.2077	-0.048645	25.7	258	0.000661215
27.3077	-0.048645	25.8	259	-0.000356039	dWE(1).Potential/dt < 1E-06 V/s
27.4077	-0.048645	25.9	260	0.000101725
27.5077	-0.048645	26	261	0	dWE(1).Potential/dt < 1E-06 V/s
27.6077	-0.0486145	26.1	262	0.000559489
27.7077	-0.0486145	26.2	263	-0.000356039	dWE(1).Potential/dt < 1E-06 V/s
27.8077	-0.0486145	26.3	264	0.000101725
27.9077	-0.048584	26.4	265	0.000559489
28.0077	-0.048584	26.5	266	-0.000356039	dWE(1).Potential/dt < 1E-06 V/s
28.1077	-0.0485535	26.6	267	0.000661215
28.2077	-0.0485535	26.7	268	-0.000356039	dWE(1).Potential/dt < 1E-06 V/s
28.3077	-0.0485535	26.8	269	0.000101725
28.4077	-0.0485535	26.9	270	0	dWE(1).Potential/dt < 1E-06 V/s
28.5077	-0.0485229	27	271	0.000559489
28.6077	-0.0485229	27.1	272	-0.000356039	dWE(1).Potential/dt < 1E-06 V/s
28.7077	-0.0485229	27.2	273	0.000101725
28.8077	-0.0485229	27.3	274	0	dWE(1).Potential/dt < 1E-06 V/s
28.9077	-0.0484924	27.4	275	0.000559489
29.0077	-0.0484924	27.5	276	-0.000356039	dWE(1).Potential/dt < 1E-06 V/s
29.1077	-0.0484924	27.6	277	0.000101725
29.2077	-0.0484924	27.7	278	0	dWE(1).Potential/dt < 1E-06 V/s
29.3077	-0.0484924	27.8	279	0	dWE(1).Potential/dt < 1E-06 V/s
29.4077	-0.0484924	27.9	280	0	dWE(1).Potential/dt < 1E-06 V/s
29.5077	-0.0484924	28	281	0	dWE(1).Potential/dt < 1E-06 V/s
29.6077	-0.0484619	28.1	282	0.000559489
29.7077	-0.0484924	28.2	283	-0.000915528	dWE(1).Potential/dt < 1E-06 V/s
29.8077	-0.0484924	28.3	284	0.000457764
29.9077	-0.0484924	28.4	285	-0.000101725	dWE(1).Potential/dt < 1E-06 V/s
30.0077	-0.0484924	28.5	286	0	dWE(1).Potential/dt < 1E-06 V/s
30.1077	-0.0484924	28.6	287	0	dWE(1).Potential/dt < 1E-06 V/s
30.2077	-0.0484924	28.7	288	0	dWE(1).Potential/dt < 1E-06 V/s
30.3077	-0.0484924	28.8	289	0	dWE(1).Potential/dt < 1E-06 V/s , dWE(1).Potential/dt > -1E-06 V/s
30.4077	-0.0484924	28.9	290	0	dWE(1).Potential/dt < 1E-06 V/s , dWE(1).Potential/dt > -1E-06 V/s
30.5077	-0.0484924	29	291	0	dWE(1).Potential/dt < 1E-06 V/s , dWE(1).Potential/dt > -1E-06 V/s
30.6077	-0.0484924	29.1	292	0	dWE(1).Potential/dt < 1E-06 V/s , dWE(1).Potential/dt > -1E-06 V/s
30.7077	-0.0484924	29.2	293	0	dWE(1).Potential/dt < 1E-06 V/s , dWE(1).Potential/dt > -1E-06 V/s

File: OCP_GNP1%_SF2.txt
Time (s)	WE(1).Potential (V)	Corrected time (s)	Index	dWE(1).Potential/dt (V/s)	Cutoffs	OCP value (V)
1.40574	-0.0202454	0	1	0	dWE(1).Potential/dt < 1E-06 V/s	-0.0181939
1.50574	-0.0202087	0.1	2	0.000366215
1.60574	-0.0201355	0.2	3	0.000915546
1.70574	-0.020163	0.3	4	-0.00123601	dWE(1).Potential/dt < 1E-06 V/s
1.80574	-0.0201752	0.4	5	0.000340845
1.90574	-0.020163	0.5	6	0.000274622
2.00574	-0.0202179	0.6	7	-0.00119015	dWE(1).Potential/dt < 1E-06 V/s
2.10574	-0.0202209	0.7	8	0.000625613
2.20574	-0.0202728	0.8	9	-0.00109863	dWE(1).Potential/dt < 1E-06 V/s
2.30574	-0.0202911	0.9	10	0.000259355
2.40574	-0.0203094	1	11	-0.000294981	dWE(1).Potential/dt < 1E-06 V/s
2.50574	-0.0203339	1.1	12	-0.000294999	dWE(1).Potential/dt < 1E-06 V/s
2.60574	-0.0203003	1.2	13	0.000839196
2.70574	-0.0203186	1.3	14	-0.000808661	dWE(1).Potential/dt < 1E-06 V/s
2.80574	-0.0202881	1.4	15	0.000884974
2.90574	-0.0202667	1.5	16	-2.54251e-05	dWE(1).Potential/dt < 1E-06 V/s
3.00574	-0.0202942	1.6	17	-0.000651038	dWE(1).Potential/dt < 1E-06 V/s
3.10574	-0.0203186	1.7	18	-5.59352e-05	dWE(1).Potential/dt < 1E-06 V/s
3.20574	-0.0203583	1.8	19	-0.00053407	dWE(1).Potential/dt < 1E-06 V/s
3.30574	-0.0203766	1.9	20	4.57714e-05
3.40574	-0.0203644	2	21	0.000305219
3.50574	-0.020282	2.1	22	0.00130714
3.60574	-0.0202972	2.2	23	-0.00120033	dWE(1).Potential/dt < 1E-06 V/s
3.70574	-0.0203949	2.3	24	-0.00133768	dWE(1).Potential/dt < 1E-06 V/s
3.80574	-0.0204956	2.4	25	-0.00075786	dWE(1).Potential/dt < 1E-06 V/s
3.90574	-0.0205383	2.5	26	6.61239e-05
4.00574	-0.020575	2.6	27	-0.000508632	dWE(1).Potential/dt < 1E-06 V/s
4.10574	-0.0206085	2.7	28	-0.00033057	dWE(1).Potential/dt < 1E-06 V/s
4.20574	-0.0206787	2.8	29	-0.00101728	dWE(1).Potential/dt < 1E-06 V/s
4.30574	-0.0207184	2.9	30	-2.03587e-05	dWE(1).Potential/dt < 1E-06 V/s
4.40574	-0.0207336	3	31	-5.08688e-05	dWE(1).Potential/dt < 1E-06 V/s
4.50574	-0.0208252	3.1	32	-0.00163271	dWE(1).Potential/dt < 1E-06 V/s
4.60574	-0.020874	3.2	33	0.000122078
4.70574	-0.0209167	3.3	34	-0.000518821	dWE(1).Potential/dt < 1E-06 V/s
4.80574	-0.02099	3.4	35	-0.00100706	dWE(1).Potential/dt < 1E-06 V/s
4.90574	-0.0210388	3.5	36	-0.00018316	dWE(1).Potential/dt < 1E-06 V/s
5.00574	-0.0210724	3.6	37	-0.00028989	dWE(1).Potential/dt < 1E-06 V/s
5.10574	-0.0211487	3.7	38	-0.00116985	dWE(1).Potential/dt < 1E-06 V/s
5.20574	-0.021167	3.8	39	0.000442527
5.30574	-0.0211426	3.9	40	0.000406901
5.40574	-0.0212036	4	41	-0.00146486	dWE(1).Potential/dt < 1E-06 V/s
5.50574	-0.02117	4.1	42	0.00140887
5.60574	-0.0211823	4.2	43	-0.000818825	dWE(1).Potential/dt < 1E-06 V/s
5.70574	-0.0212036	4.3	44	-0.000137345	dWE(1).Potential/dt < 1E-06 V/s
5.80574	-0.0212219	4.4	45	-0.0001272	dWE(1).Potential/dt < 1E-06 V/s
5.90574	-0.0213226	4.5	46	-0.00170389	dWE(1).Potential/dt < 1E-06 V/s
6.00574	-0.0213654	4.6	47	0.00033065
6.10574	-0.0214111	4.7	48	-0.000676475	dWE(1).Potential/dt < 1E-06 V/s
6.20574	-0.0214203	4.8	49	0.000223772
6.30574	-0.0214478	4.9	50	-0.000549294	dWE(1).Potential/dt < 1E-06 V/s
6.40574	-0.0214935	5	51	-0.000549344	dWE(1).Potential/dt < 1E-06 V/s
6.50574	-0.0214966	5.1	52	0.000386524
6.60574	-0.0215118	5.2	53	-0.000396725	dWE(1).Potential/dt < 1E-06 V/s
6.70574	-0.0215637	5.3	54	-0.000783261	dWE(1).Potential/dt < 1E-06 V/s
6.80574	-0.0215851	5.4	55	0.000162758
6.90574	-0.0216095	5.5	56	-0.0003713	dWE(1).Potential/dt < 1E-06 V/s
7.00574	-0.0216461	5.6	57	-0.000457751	dWE(1).Potential/dt < 1E-06 V/s
7.10574	-0.0216736	5.7	58	-0.00015771	dWE(1).Potential/dt < 1E-06 V/s
7.20574	-0.0216949	5.8	59	-0.000193256	dWE(1).Potential/dt < 1E-06 V/s
7.30574	-0.0217041	5.9	60	-1.01887e-05	dWE(1).Potential/dt < 1E-06 V/s
7.40574	-0.021759	6	61	-0.00097145	dWE(1).Potential/dt < 1E-06 V/s
7.50574	-0.0218353	6.1	62	-0.000788383	dWE(1).Potential/dt < 1E-06 V/s
7.60574	-0.0220032	6.2	63	-0.0023702	dWE(1).Potential/dt < 1E-06 V/s
7.70574	-0.0218689	6.3	64	0.00416567
7.80574	-0.0218689	6.4	65	-0.00212605	dWE(1).Potential/dt < 1E-06 V/s
7.90574	-0.0218842	6.5	66	0.000167862
8.00574	-0.0218628	6.6	67	0.000569634
8.10574	-0.0218964	6.7	68	-0.000915515	dWE(1).Potential/dt < 1E-06 V/s
8.20574	-0.0218872	6.8	69	0.000630679
8.30574	-0.0219086	6.9	70	-0.000610339	dWE(1).Potential/dt < 1E-06 V/s
8.40574	-0.0218964	7	71	0.000503535
8.50574	-0.0218903	7.1	72	-0.000101719	dWE(1).Potential/dt < 1E-06 V/s
8.60574	-0.0218994	7.2	73	-0.000198372	dWE(1).Potential/dt < 1E-06 V/s
8.70574	-0.021936	7.3	74	-0.000544215	dWE(1).Potential/dt < 1E-06 V/s
8.80574	-0.0219574	7.4	75	5.06018e-06
8.90574	-0.0220306	7.5	76	-0.00121562	dWE(1).Potential/dt < 1E-06 V/s
9.00574	-0.0219666	7.6	77	0.00195823
9.10574	-0.0219391	7.7	78	-0.000488336	dWE(1).Potential/dt < 1E-06 V/s
9.20574	-0.0219086	7.8	79	0.000452685
9.30574	-0.0219025	7.9	80	-0.000152594	dWE(1).Potential/dt < 1E-06 V/s
9.40574	-0.0218872	8	81	0.000310279
9.50574	-0.0218872	8.1	82	-0.000157667	dWE(1).Potential/dt < 1E-06 V/s
9.60574	-0.0218658	8.2	83	0.000442521
9.70574	-0.0218842	8.3	84	-0.000584914	dWE(1).Potential/dt < 1E-06 V/s
9.80574	-0.0219147	8.4	85	-0.000274647	dWE(1).Potential/dt < 1E-06 V/s
9.90574	-0.0219025	8.5	86	0.000518784
10.0057	-0.0219086	8.6	87	-0.000356026	dWE(1).Potential/dt < 1E-06 V/s
10.1057	-0.0219788	8.7	88	-0.00117494	dWE(1).Potential/dt < 1E-06 V/s
10.2057	-0.0218689	8.8	89	0.00281275
10.3057	-0.0218414	8.9	90	-0.0010122	dWE(1).Potential/dt < 1E-06 V/s
10.4057	-0.021759	9	91	0.00155643
10.5057	-0.0217682	9.1	92	-0.0010376	dWE(1).Potential/dt < 1E-06 V/s
10.6057	-0.0218872	9.2	93	-0.00180058	dWE(1).Potential/dt < 1E-06 V/s
10.7057	-0.0219666	9.3	94	-9.65843e-05	dWE(1).Potential/dt < 1E-06 V/s
10.8057	-0.0219727	9.4	95	0.000417028
10.9057	-0.0219757	9.5	96	-0.000249191	dWE(1).Potential/dt < 1E-06 V/s
11.0057	-0.0219269	9.6	97	0.00091043
11.1057	-0.0219055	9.7	98	-0.000188177	dWE(1).Potential/dt < 1E-06 V/s
11.2057	-0.021933	9.8	99	-0.000590049	dWE(1).Potential/dt < 1E-06 V/s
11.3057	-0.021936	9.9	100	0.000335748
11.4057	-0.0218933	10	101	0.00072727
11.5057	-0.0218567	10.1	102	0.000162777
11.6057	-0.0216949	10.2	103	0.00268046
11.7057	-0.0217529	10.3	104	-0.00282795	dWE(1).Potential/dt < 1E-06 V/s
11.8057	-0.0217621	10.4	105	0.00104776
11.9057	-0.0217804	10.5	106	-0.000422162	dWE(1).Potential/dt < 1E-06 V/s
12.0057	-0.0217255	10.6	107	0.0011902
12.1057	-0.0216827	10.7	108	8.13727e-05
12.2057	-0.0216675	10.8	109	-3.56076e-05	dWE(1).Potential/dt < 1E-06 V/s
12.3057	-0.0215881	10.9	110	0.00141905
12.4057	-0.0216034	11	111	-0.00115459	dWE(1).Potential/dt < 1E-06 V/s
12.5057	-0.0216949	11.1	112	-0.00123598	dWE(1).Potential/dt < 1E-06 V/s
12.6057	-0.0214844	11.2	113	0.00487773
12.7057	-0.0213959	11.3	114	-0.00113931	dWE(1).Potential/dt < 1E-06 V/s
12.8057	-0.0213562	11.4	115	0.000396731
12.9057	-0.0213165	11.5	116	0.000559464
13.0057	-0.0212738	11.6	117	0.00045271
13.1057	-0.021283	11.7	118	-0.000534089	dWE(1).Potential/dt < 1E-06 V/s
13.2057	-0.021228	11.8	119	0.00125634
13.3057	-0.0211792	11.9	120	0.000223778
13.4057	-0.0211517	12	121	0.000117011
13.5057	-0.0210541	12.1	122	0.00163266
13.6057	-0.0210022	12.2	123	-9.6634e-05	dWE(1).Potential/dt < 1E-06 V/s
13.7057	-0.0209991	12.3	124	-0.000223753	dWE(1).Potential/dt < 1E-06 V/s
13.8057	-0.0209564	12.4	125	0.000920581
13.9057	-0.0209259	12.5	126	7.12337e-05
14.0057	-0.0208496	12.6	127	0.0011851
[...]
55.5057	-0.017514	54.1	542	-0.000528966	dWE(1).Potential/dt < 1E-06 V/s
55.6057	-0.0175537	54.2	543	-0.000305182	dWE(1).Potential/dt < 1E-06 V/s
55.7057	-0.0175934	54.3	544	-0.000417046	dWE(1).Potential/dt < 1E-06 V/s
55.8057	-0.017627	54.4	545	-0.000284823	dWE(1).Potential/dt < 1E-06 V/s
55.9057	-0.0176666	54.5	546	-0.000467965	dWE(1).Potential/dt < 1E-06 V/s
56.0057	-0.0177124	54.6	547	-0.000488286	dWE(1).Potential/dt < 1E-06 V/s
56.1057	-0.017749	54.7	548	-0.00026955	dWE(1).Potential/dt < 1E-06 V/s
56.2057	-0.0177734	54.8	549	-0.000172965	dWE(1).Potential/dt < 1E-06 V/s
56.3057	-0.0178162	54.9	550	-0.000620497	dWE(1).Potential/dt < 1E-06 V/s
56.4057	-0.0178375	55	551	2.53941e-05
56.5057	-0.0178619	55.1	552	-0.000340752	dWE(1).Potential/dt < 1E-06 V/s
56.6057	-0.0178955	55.2	553	-0.000401866	dWE(1).Potential/dt < 1E-06 V/s
56.7057	-0.0179199	55.3	554	-0.000137314	dWE(1).Potential/dt < 1E-06 V/s
56.8057	-0.0179199	55.4	555	0.000172947
56.9057	-0.0179443	55.5	556	-0.000528954	dWE(1).Potential/dt < 1E-06 V/s
57.0057	-0.0179626	55.6	557	-5.08564e-05	dWE(1).Potential/dt < 1E-06 V/s
57.1057	-0.017981	55.7	558	-0.000203469	dWE(1).Potential/dt < 1E-06 V/s
57.2057	-0.0180054	55.8	559	-0.000294968	dWE(1).Potential/dt < 1E-06 V/s
57.3057	-0.0180664	55.9	560	-0.000895199	dWE(1).Potential/dt < 1E-06 V/s
57.4057	-0.0180847	56	561	0.000295024
57.5057	-0.0180817	56.1	562	6.61115e-05
57.6057	-0.0180908	56.2	563	-0.000264471	dWE(1).Potential/dt < 1E-06 V/s
57.7057	-0.0181122	56.3	564	-0.00027469	dWE(1).Potential/dt < 1E-06 V/s
57.8057	-0.0181305	56.4	565	-0.000116949	dWE(1).Potential/dt < 1E-06 V/s
57.9057	-0.0181183	56.5	566	0.00036619
58.0057	-0.0181549	56.6	567	-0.000874822	dWE(1).Potential/dt < 1E-06 V/s
58.1057	-0.0182068	56.7	568	-0.000483182	dWE(1).Potential/dt < 1E-06 V/s
58.2057	-0.0182129	56.8	569	0.000371293
58.3057	-0.0182159	56.9	570	-0.000157716	dWE(1).Potential/dt < 1E-06 V/s
58.4057	-0.0182343	57	571	-0.000320412	dWE(1).Potential/dt < 1E-06 V/s
58.5057	-0.0182404	57.1	572	9.15366e-05
58.6057	-0.0182495	57.2	573	-0.000157642	dWE(1).Potential/dt < 1E-06 V/s
58.7057	-0.0182709	57.3	574	-0.000305201	dWE(1).Potential/dt < 1E-06 V/s
58.8057	-0.01828	57.4	575	5.08937e-05
58.9057	-0.0182709	57.5	576	0.000203426
59.0057	-0.0182922	57.6	577	-0.00052896	dWE(1).Potential/dt < 1E-06 V/s
59.1057	-0.0182831	57.7	578	0.000447606
59.2057	-0.0183014	57.8	579	-0.000513736	dWE(1).Potential/dt < 1E-06 V/s
59.3057	-0.0182922	57.9	580	0.000412005
59.4057	-0.0182892	58	581	-0.000111895	dWE(1).Potential/dt < 1E-06 V/s
59.5057	-0.0182892	58.1	582	-5.10986e-06	dWE(1).Potential/dt < 1E-06 V/s
59.6057	-0.0183167	58.2	583	-0.00049339	dWE(1).Potential/dt < 1E-06 V/s
59.7057	-0.0183105	58.3	584	0.000432376
59.8057	-0.0182953	58.4	585	0.000116968
59.9057	-0.0183075	58.5	586	-0.000381488	dWE(1).Potential/dt < 1E-06 V/s
60.0057	-0.0183228	58.6	587	-8.64764e-05	dWE(1).Potential/dt < 1E-06 V/s
60.1057	-0.0183044	58.7	588	0.000473037
60.2057	-0.0183319	58.8	589	-0.000768068	dWE(1).Potential/dt < 1E-06 V/s
60.3057	-0.0183441	58.9	590	0.000157741
60.4057	-0.0183655	59	591	-0.000340796	dWE(1).Potential/dt < 1E-06 V/s
60.5057	-0.0183777	59.1	592	-1.52923e-05	dWE(1).Potential/dt < 1E-06 V/s
60.6057	-0.0183899	59.2	593	-0.000152526	dWE(1).Potential/dt < 1E-06 V/s
60.7057	-0.0183716	59.3	594	0.000437392
60.8057	-0.0183746	59.4	595	-0.000310236	dWE(1).Potential/dt < 1E-06 V/s
60.9057	-0.0183777	59.5	596	4.06677e-05
61.0057	-0.0183777	59.6	597	2.54561e-05
61.1057	-0.0183777	59.7	598	-1.017e-05	dWE(1).Potential/dt < 1E-06 V/s
61.2057	-0.0183624	59.8	599	0.000279751
61.3057	-0.0183594	59.9	600	-0.000122034	dWE(1).Potential/dt < 1E-06 V/s

File: Z_GNP0.1%_IV.txt
Index	Frequency (Hz)	Z' (Ω)	-Z'' (Ω)	Z (Ω)	-Phase (°)	Time (s)
1	1000000	-818.91	14827.8	14850.4	93.1611	69.9271
2	794330	4642.68	19381	19929.3	76.5288	71.2371
3	630960	12187.3	23613.6	26573.1	62.701	72.5171
4	501190	17909	26132.1	31680	55.5761	73.9071
5	398110	26995.1	35572.7	44655.9	52.8061	75.2072
6	316230	32078.6	37158.3	49089.5	49.1961	76.4972
7	251190	35985.2	38767.3	52894.6	47.1314	78.6372
8	199530	40405.9	41827.3	58156.3	45.9903	79.8373
9	158490	44755	45759.7	64007.5	45.636	81.1273
10	125890	49259	50708.4	70695	45.8307	82.3173
11	100000	54111	56736.8	78403.2	46.357	83.6173
12	79433	59385.7	64498.3	87673.7	47.3632	84.7973
13	63096	65270	73933.2	98622	48.5612	86.0874
14	50119	72245	85367.7	111835	49.7594	87.3774
15	39811	80789.2	98959.6	127749	50.7723	88.5724
16	31623	91322.1	113876	145971	51.2724	89.7574
17	25119	101934	132008	166783	52.3256	90.9525
18	19953	115493	153926	192437	53.1185	92.1375
19	15849	131817	179299	222539	53.6773	93.3275
20	12589	152709	208761	258653	53.8144	94.5175
21	10000	174110	242038	298155	54.2707	95.7276
22	7943.3	205177	279624	346824	53.7303	96.9326
23	6309.6	243449	320627	402578	52.7909	98.1326
24	5011.9	289959	365410	466477	51.5674	99.3276
25	3981.1	346986	411872	538551	49.8871	100.513
26	3162.3	415031	459102	618890	47.8863	101.693
27	2511.9	494363	504714	706492	45.5936	102.883
28	1995.3	583838	542457	796948	42.8959	104.068
29	1584.9	688790	573923	896559	39.8022	105.218
30	1258.9	792157	586706	985767	36.5253	106.383
31	1000	909927	600918	1.09045e+06	33.4409	107.593
32	794.33	1.02392e+06	588554	1.18102e+06	29.8904	108.893
33	630.96	1.13302e+06	572356	1.26938e+06	26.8012	110.058
34	501.19	1.22907e+06	540273	1.34257e+06	23.7293	111.258
35	398.11	1.31926e+06	498609	1.41034e+06	20.7038	112.433
36	316.23	1.39577e+06	464530	1.47105e+06	18.408	113.628
37	251.19	1.45679e+06	414717	1.51468e+06	15.8905	114.863
38	199.53	1.52577e+06	372896	1.57067e+06	13.7338	116.058
39	158.49	1.55922e+06	334258	1.59465e+06	12.0996	117.288
40	125.89	1.57696e+06	295425	1.6044e+06	10.6107	118.553
41	100	1.64543e+06	231921	1.6617e+06	8.02289	119.803
42	79.433	1.66929e+06	233620	1.68556e+06	7.9669	121.088
43	63.096	1.60639e+06	236973	1.62378e+06	-8.39168	122.428
44	50.119	1.70783e+06	205729	1.72018e+06	6.86888	123.793
45	39.811	1.72426e+06	194444	1.73519e+06	6.43405	132.768
46	31.623	1.71142e+06	190115	1.72195e+06	6.33878	134.273
47	25.119	1.77692e+06	232064	1.79201e+06	7.44065	135.803
48	19.953	1.79001e+06	163882	1.79749e+06	5.23108	137.563
49	15.849	1.74766e+06	170649	1.75597e+06	5.5769	139.373
50	12.589	1.83263e+06	171019	1.84059e+06	5.33135	141.213
51	10	1.8468e+06	158600	1.8536e+06	4.90842	143.378
52	7.9433	1.86811e+06	151653	1.87425e+06	4.64109	145.568
53	6.3096	1.89319e+06	162196	1.90012e+06	4.89678	147.754
54	5.0119	1.90398e+06	163741	1.911e+06	4.91533	150.079
55	3.9811	1.92961e+06	170923	1.93716e+06	5.06201	152.349
56	3.1623	1.95007e+06	177014	1.95808e+06	5.18672	154.679
57	2.5119	1.96861e+06	186899	1.97746e+06	5.4234	157.159
58	1.9953	1.9924e+06	198525	2.00227e+06	5.69021	159.714
59	1.5849	2.01505e+06	209567	2.02592e+06	5.93746	162.294
60	1.2589	2.04888e+06	221772	2.06084e+06	6.1777	165.089
61	1	2.0672e+06	243193	2.08145e+06	6.70966	168.279
62	0.79433	2.09632e+06	264530	2.11295e+06	7.192	171.429
63	0.63096	2.12588e+06	289284	2.14547e+06	7.74908	174.829
64	0.50119	2.15663e+06	323732	2.18079e+06	8.53694	178.564
65	0.39811	2.19047e+06	362855	2.22032e+06	9.40574	182.649
66	0.31623	2.23465e+06	405231	2.2711e+06	10.2783	187.309
67	0.25119	2.28049e+06	462126	2.32684e+06	11.4555	192.649
68	0.19953	2.33135e+06	523434	2.38939e+06	12.6542	198.744
69	0.15849	2.39487e+06	591882	2.46692e+06	13.8822	205.925
70	0.12589	2.45445e+06	663672	2.5426e+06	15.1307	214.325
71	0.1	2.53127e+06	772946	2.64665e+06	16.9805	224.425