Folder: Streamlit_cement_impedance/data/Z_measu_on_silk_fibroin (part 2)

File: OCP_GNP0.5%_IV.txt
Time (s)	WE(1).Potential (V)	Corrected time (s)	Index	dWE(1).Potential/dt (V/s)	Cutoffs	OCP value (V)
1.44874	-0.00457764	0	1	0	dWE(1).Potential/dt < 1E-06 V/s	-0.00471033
1.54874	-0.00455933	0.1	2	0.000183107
1.64874	-0.00455322	0.2	3	0	dWE(1).Potential/dt < 1E-06 V/s
1.74874	-0.00454102	0.3	4	0.000213614
1.84874	-0.00452576	0.4	5	0.000157682
1.94874	-0.00450745	0.5	6	0.00019837
2.04874	-0.00449219	0.6	7	0.000116976
2.14874	-0.00448914	0.7	8	-6.10435e-05	dWE(1).Potential/dt < 1E-06 V/s
2.24874	-0.00448914	0.8	9	1.52597e-05
2.34874	-0.00447388	0.9	10	0.000289913
2.44874	-0.00447693	1	11	-0.000233964	dWE(1).Potential/dt < 1E-06 V/s
2.54874	-0.00446472	1.1	12	0.000310251
2.64874	-0.00445862	1.2	13	-4.06833e-05	dWE(1).Potential/dt < 1E-06 V/s
2.74874	-0.00445557	1.3	14	2.54298e-05
2.84874	-0.00446167	1.4	15	-0.000127155	dWE(1).Potential/dt < 1E-06 V/s
2.94874	-0.00445251	1.5	16	0.000249225
3.04874	-0.00445557	1.6	17	-0.000183104	dWE(1).Potential/dt < 1E-06 V/s
3.14874	-0.00444946	1.7	18	0.000178018
3.24874	-0.00445557	1.8	19	-0.000193271	dWE(1).Potential/dt < 1E-06 V/s
3.34874	-0.00444946	1.9	20	0.000203444
3.44874	-0.00445251	2	21	-0.000147489	dWE(1).Potential/dt < 1E-06 V/s
3.54874	-0.00445251	2.1	22	5.59476e-05
3.64874	-0.00445557	2.2	23	-6.61223e-05	dWE(1).Potential/dt < 1E-06 V/s
3.74874	-0.00444946	2.3	24	0.0001475
3.84874	-0.00445251	2.4	25	-0.000137317	dWE(1).Potential/dt < 1E-06 V/s
3.94874	-0.00444946	2.5	26	0.000111889
4.04874	-0.00444641	2.6	27	1.0184e-05
4.14874	-0.00444641	2.7	28	-2.54406e-05	dWE(1).Potential/dt < 1E-06 V/s
4.24874	-0.00444641	2.8	29	1.01716e-05
4.34874	-0.00444336	2.9	30	5.59399e-05
4.44874	-0.00444336	3	31	-3.56029e-05	dWE(1).Potential/dt < 1E-06 V/s
4.54874	-0.00444946	3.1	32	-0.000101727	dWE(1).Potential/dt < 1E-06 V/s
4.64874	-0.00444336	3.2	33	0.000183107
4.74874	-0.00443726	3.3	34	2.03494e-05
4.84874	-0.00443115	3.4	35	6.10342e-05
4.94874	-0.00443115	3.5	36	-5.08657e-05	dWE(1).Potential/dt < 1E-06 V/s
5.04874	-0.0044281	3.6	37	7.62846e-05
5.14874	-0.0044281	3.7	38	-3.56029e-05	dWE(1).Potential/dt < 1E-06 V/s
5.24874	-0.0044281	3.8	39	1.01685e-05
5.34874	-0.00442505	3.9	40	5.59507e-05
5.44874	-0.00442505	4	41	-3.56045e-05	dWE(1).Potential/dt < 1E-06 V/s
5.54874	-0.00442505	4.1	42	1.01731e-05
5.64874	-0.00441895	4.2	43	0.000111895
5.74874	-0.00442505	4.3	44	-0.000183098	dWE(1).Potential/dt < 1E-06 V/s
5.84874	-0.0044281	4.4	45	3.55951e-05
5.94874	-0.0044281	4.5	46	1.52566e-05
6.04874	-0.004422	4.6	47	0.000101731
6.14874	-0.0044281	4.7	48	-0.000183114	dWE(1).Potential/dt < 1E-06 V/s
6.24874	-0.0044342	4.8	49	-2.03432e-05	dWE(1).Potential/dt < 1E-06 V/s
6.34874	-0.00444031	4.9	50	-6.10296e-05	dWE(1).Potential/dt < 1E-06 V/s
6.44874	-0.00444031	5	51	5.08595e-05
6.54874	-0.00445251	5.1	52	-0.000244135	dWE(1).Potential/dt < 1E-06 V/s
6.64874	-0.00446167	5.2	53	-2.54313e-05	dWE(1).Potential/dt < 1E-06 V/s
6.74874	-0.00447388	5.3	54	-0.000157685	dWE(1).Potential/dt < 1E-06 V/s
6.84874	-0.00448303	5.4	55	-5.59383e-05	dWE(1).Potential/dt < 1E-06 V/s
6.94874	-0.00448914	5.5	56	-4.57854e-05	dWE(1).Potential/dt < 1E-06 V/s
7.04874	-0.00449524	5.6	57	-7.12058e-05	dWE(1).Potential/dt < 1E-06 V/s
7.14874	-0.00449219	5.7	58	0.00010682
7.24874	-0.00448608	5.8	59	5.59383e-05
7.34874	-0.00448608	5.9	60	-6.10311e-05	dWE(1).Potential/dt < 1E-06 V/s
7.44874	-0.00448303	6	61	7.62986e-05
7.54874	-0.00447083	6.1	62	0.000188189
7.64874	-0.00446777	6.2	63	-7.62877e-05	dWE(1).Potential/dt < 1E-06 V/s
7.74874	-0.00446472	6.3	64	6.10296e-05
7.84874	-0.00446167	6.4	65	3.05287e-05
7.94874	-0.00446167	6.5	66	-2.54406e-05	dWE(1).Potential/dt < 1E-06 V/s
8.04874	-0.00446777	6.6	67	-0.000101724	dWE(1).Potential/dt < 1E-06 V/s
8.14874	-0.00447388	6.7	68	-4.06941e-05	dWE(1).Potential/dt < 1E-06 V/s
8.24874	-0.00447388	6.8	69	5.08611e-05
8.34874	-0.00448303	6.9	70	-0.000188186	dWE(1).Potential/dt < 1E-06 V/s
8.44874	-0.00448914	7	71	-5.09433e-06	dWE(1).Potential/dt < 1E-06 V/s
8.54874	-0.00450439	7.1	72	-0.000239055	dWE(1).Potential/dt < 1E-06 V/s
8.64874	-0.0045166	7.2	73	-6.61208e-05	dWE(1).Potential/dt < 1E-06 V/s
8.74874	-0.00453186	7.3	74	-0.000188192	dWE(1).Potential/dt < 1E-06 V/s
8.84874	-0.00455017	7.4	75	-0.000198369	dWE(1).Potential/dt < 1E-06 V/s
8.94874	-0.00457153	7.5	76	-0.000228882	dWE(1).Potential/dt < 1E-06 V/s
9.04874	-0.00459595	7.6	77	-0.000259398	dWE(1).Potential/dt < 1E-06 V/s
9.14874	-0.00461121	7.7	78	-6.6127e-05	dWE(1).Potential/dt < 1E-06 V/s
9.24874	-0.00463562	7.8	79	-0.000350946	dWE(1).Potential/dt < 1E-06 V/s
9.34874	-0.00465698	7.9	80	-0.000157682	dWE(1).Potential/dt < 1E-06 V/s
9.44874	-0.00467834	8	81	-0.000223794	dWE(1).Potential/dt < 1E-06 V/s
9.54874	-0.00470581	8.1	82	-0.000325513	dWE(1).Potential/dt < 1E-06 V/s
9.64874	-0.00473022	8.2	83	-0.000198375	dWE(1).Potential/dt < 1E-06 V/s
9.74874	-0.00475159	8.3	84	-0.000198358	dWE(1).Potential/dt < 1E-06 V/s
9.84874	-0.0047699	8.4	85	-0.000167857	dWE(1).Potential/dt < 1E-06 V/s
9.94874	-0.00479126	8.5	86	-0.000249216	dWE(1).Potential/dt < 1E-06 V/s
10.0487	-0.00480957	8.6	87	-0.000147511	dWE(1).Potential/dt < 1E-06 V/s
10.1487	-0.00481873	8.7	88	-2.54235e-05	dWE(1).Potential/dt < 1E-06 V/s
10.2487	-0.00482788	8.8	89	-0.000122072	dWE(1).Potential/dt < 1E-06 V/s
10.3487	-0.00484314	8.9	90	-0.000203454	dWE(1).Potential/dt < 1E-06 V/s
10.4487	-0.00484924	9	91	3.56045e-05
10.5487	-0.0048584	9.1	92	-0.000147498	dWE(1).Potential/dt < 1E-06 V/s
10.6487	-0.00487061	9.2	93	-0.000137341	dWE(1).Potential/dt < 1E-06 V/s
10.7487	-0.00487671	9.3	94	3.10441e-09	dWE(1).Potential/dt < 1E-06 V/s
10.8487	-0.00488892	9.4	95	-0.00019327	dWE(1).Potential/dt < 1E-06 V/s
10.9487	-0.00489807	9.5	96	-4.57869e-05	dWE(1).Potential/dt < 1E-06 V/s
11.0487	-0.00490417	9.6	97	-4.57698e-05	dWE(1).Potential/dt < 1E-06 V/s
11.1487	-0.00491028	9.7	98	-7.12105e-05	dWE(1).Potential/dt < 1E-06 V/s
11.2487	-0.00492249	9.8	99	-0.000172934	dWE(1).Potential/dt < 1E-06 V/s
11.3487	-0.00492554	9.9	100	6.61348e-05
11.4487	-0.00494385	10	101	-0.000340786	dWE(1).Potential/dt < 1E-06 V/s
11.5487	-0.00495605	10.1	102	-2.03385e-05	dWE(1).Potential/dt < 1E-06 V/s
11.6487	-0.00497131	10.2	103	-0.000198362	dWE(1).Potential/dt < 1E-06 V/s
11.7487	-0.00498352	10.3	104	-8.64702e-05	dWE(1).Potential/dt < 1E-06 V/s
11.8487	-0.00499878	10.4	105	-0.000188186	dWE(1).Potential/dt < 1E-06 V/s
11.9487	-0.00499878	10.5	106	0.00013733
12.0487	-0.00502319	10.6	107	-0.000498455	dWE(1).Potential/dt < 1E-06 V/s
12.1487	-0.00504456	10.7	108	-0.000106815	dWE(1).Potential/dt < 1E-06 V/s
12.2487	-0.00505676	10.8	109	-5.59399e-05	dWE(1).Potential/dt < 1E-06 V/s
12.3487	-0.00507507	10.9	110	-0.000264499	dWE(1).Potential/dt < 1E-06 V/s
12.4487	-0.00508728	11	111	-5.08486e-05	dWE(1).Potential/dt < 1E-06 V/s
12.5487	-0.00510559	11.1	112	-0.000254327	dWE(1).Potential/dt < 1E-06 V/s
12.6487	-0.00512085	11.2	113	-0.000106802	dWE(1).Potential/dt < 1E-06 V/s
12.7487	-0.00513611	11.3	114	-0.000162759	dWE(1).Potential/dt < 1E-06 V/s
12.8487	-0.00514832	11.4	115	-9.66325e-05	dWE(1).Potential/dt < 1E-06 V/s
12.9487	-0.00516357	11.5	116	-0.0001882	dWE(1).Potential/dt < 1E-06 V/s
13.0487	-0.00516968	11.6	117	2.54329e-05
13.1487	-0.00517883	11.7	118	-0.000147498	dWE(1).Potential/dt < 1E-06 V/s
13.2487	-0.00518799	11.8	119	-8.13867e-05	dWE(1).Potential/dt < 1E-06 V/s
[...]
56.4487	-0.00422974	55	551	-0.0001882	dWE(1).Potential/dt < 1E-06 V/s
56.5487	-0.00424194	55.1	552	-5.59445e-05	dWE(1).Potential/dt < 1E-06 V/s
56.6487	-0.00426636	55.2	553	-0.000376388	dWE(1).Potential/dt < 1E-06 V/s
56.7487	-0.00428467	55.3	554	-9.15397e-05	dWE(1).Potential/dt < 1E-06 V/s
56.8487	-0.00429993	55.4	555	-0.000147503	dWE(1).Potential/dt < 1E-06 V/s
56.9487	-0.00431519	55.5	556	-0.000162756	dWE(1).Potential/dt < 1E-06 V/s
57.0487	-0.00433655	55.6	557	-0.000264492	dWE(1).Potential/dt < 1E-06 V/s
57.1487	-0.00435791	55.7	558	-0.000193277	dWE(1).Potential/dt < 1E-06 V/s
57.2487	-0.00438232	55.8	559	-0.000269571	dWE(1).Potential/dt < 1E-06 V/s
57.3487	-0.00440979	55.9	560	-0.000289918	dWE(1).Potential/dt < 1E-06 V/s
57.4487	-0.00443115	56	561	-0.000152586	dWE(1).Potential/dt < 1E-06 V/s
57.5487	-0.00445862	56.1	562	-0.000345878	dWE(1).Potential/dt < 1E-06 V/s
57.6487	-0.00448608	56.2	563	-0.000254307	dWE(1).Potential/dt < 1E-06 V/s
57.7487	-0.00451965	56.3	564	-0.000386562	dWE(1).Potential/dt < 1E-06 V/s
57.8487	-0.00454407	56.4	565	-0.000147494	dWE(1).Potential/dt < 1E-06 V/s
57.9487	-0.00456848	56.5	566	-0.000274659	dWE(1).Potential/dt < 1E-06 V/s
58.0487	-0.00459595	56.6	567	-0.0003001	dWE(1).Potential/dt < 1E-06 V/s
58.1487	-0.00461731	56.7	568	-0.000152585	dWE(1).Potential/dt < 1E-06 V/s
58.2487	-0.00463867	56.8	569	-0.000233962	dWE(1).Potential/dt < 1E-06 V/s
58.3487	-0.00466003	56.9	570	-0.000213624	dWE(1).Potential/dt < 1E-06 V/s
58.4487	-0.00468445	57	571	-0.000269579	dWE(1).Potential/dt < 1E-06 V/s
58.5487	-0.00470581	57.1	572	-0.000178013	dWE(1).Potential/dt < 1E-06 V/s
58.6487	-0.00472412	57.2	573	-0.000167857	dWE(1).Potential/dt < 1E-06 V/s
58.7487	-0.00474243	57.3	574	-0.000193262	dWE(1).Potential/dt < 1E-06 V/s
58.8487	-0.00476074	57.4	575	-0.000183112	dWE(1).Potential/dt < 1E-06 V/s
58.9487	-0.0047821	57.5	576	-0.00023905	dWE(1).Potential/dt < 1E-06 V/s
59.0487	-0.00480042	57.6	577	-0.000147512	dWE(1).Potential/dt < 1E-06 V/s
59.1487	-0.00481873	57.7	578	-0.000193262	dWE(1).Potential/dt < 1E-06 V/s
59.2487	-0.00483704	57.8	579	-0.000183112	dWE(1).Potential/dt < 1E-06 V/s
59.3487	-0.00485229	57.9	580	-0.000127155	dWE(1).Potential/dt < 1E-06 V/s
59.4487	-0.00486755	58	581	-0.000162761	dWE(1).Potential/dt < 1E-06 V/s
59.5487	-0.00488586	58.1	582	-0.000208542	dWE(1).Potential/dt < 1E-06 V/s
59.6487	-0.00489807	58.2	583	-6.10327e-05	dWE(1).Potential/dt < 1E-06 V/s
59.7487	-0.00491333	58.3	584	-0.000198365	dWE(1).Potential/dt < 1E-06 V/s
59.8487	-0.00492859	58.4	585	-0.000142415	dWE(1).Potential/dt < 1E-06 V/s
59.9487	-0.00494385	58.5	586	-0.000152588	dWE(1).Potential/dt < 1E-06 V/s
60.0487	-0.00496216	58.6	587	-0.000208542	dWE(1).Potential/dt < 1E-06 V/s
60.1487	-0.00498352	58.7	588	-0.000228882	dWE(1).Potential/dt < 1E-06 V/s
60.2487	-0.00499878	58.8	589	-9.1549e-05	dWE(1).Potential/dt < 1E-06 V/s
60.3487	-0.00501099	58.9	590	-0.000116977	dWE(1).Potential/dt < 1E-06 V/s
60.4487	-0.00502319	59	591	-0.000132259	dWE(1).Potential/dt < 1E-06 V/s
60.5487	-0.0050415	59.1	592	-0.000233959	dWE(1).Potential/dt < 1E-06 V/s
60.6487	-0.00505676	59.2	593	-0.000106818	dWE(1).Potential/dt < 1E-06 V/s
60.7487	-0.00506287	59.3	594	5.08812e-06
60.8487	-0.00507507	59.4	595	-0.000203452	dWE(1).Potential/dt < 1E-06 V/s
60.9487	-0.005078125	59.5	596	6.61348e-05
61.0487	-0.00508423	59.6	597	-0.000116996	dWE(1).Potential/dt < 1E-06 V/s
61.1487	-0.00509338	59.7	598	-0.000106802	dWE(1).Potential/dt < 1E-06 V/s
61.2487	-0.00510559	59.8	599	-0.000137336	dWE(1).Potential/dt < 1E-06 V/s
61.3487	-0.00512085	59.9	600	-0.00016784	dWE(1).Potential/dt < 1E-06 V/s

File: OCP_GNP0.5%_SF1.txt
Time (s)	WE(1).Potential (V)	Corrected time (s)	Index	dWE(1).Potential/dt (V/s)	Cutoffs	OCP value (V)
1.41274	0.00826721	0	1	0	dWE(1).Potential/dt < 1E-06 V/s	0.0112355
1.51274	0.00826111	0.1	2	-6.10296e-05	dWE(1).Potential/dt < 1E-06 V/s
1.61274	0.0084198	0.2	3	0.00241087
1.71274	0.0086731	0.3	4	0.00277204
1.81274	0.00843811	0.4	5	-0.00673422	dWE(1).Potential/dt < 1E-06 V/s
1.91274	0.00844421	0.5	6	0.00369773
2.01274	0.00844421	0.6	7	-0.000854488	dWE(1).Potential/dt < 1E-06 V/s
2.11274	0.00841064	0.7	8	-0.00059509	dWE(1).Potential/dt < 1E-06 V/s
2.21274	0.0085907	0.8	9	0.00369261
2.31274	0.008984375	0.9	10	0.00500488
2.41274	0.0086792	1	11	-0.00958759	dWE(1).Potential/dt < 1E-06 V/s
2.51274	0.00864258	1.1	12	0.00420127
2.61274	0.00862732	1.2	13	-0.000869753	dWE(1).Potential/dt < 1E-06 V/s
2.71274	0.00862427	1.3	14	3.10441e-09	dWE(1).Potential/dt < 1E-06 V/s
2.81274	0.00861511	1.4	15	-0.000183129	dWE(1).Potential/dt < 1E-06 V/s
2.91274	0.00861816	1.5	16	0.000152594
3.01274	0.00858765	1.6	17	-0.000625603	dWE(1).Potential/dt < 1E-06 V/s
3.11274	0.00856934	1.7	18	3.05163e-05
3.21274	0.00854187	1.8	19	-0.000391649	dWE(1).Potential/dt < 1E-06 V/s
3.31274	0.0085144	1.9	20	-0.000244128	dWE(1).Potential/dt < 1E-06 V/s
3.41274	0.00852051	2	21	0.000340783
3.51274	0.0085083	2.1	22	-0.00038657	dWE(1).Potential/dt < 1E-06 V/s
3.61274	0.0085083	2.2	23	0.000162758
3.71274	0.00848999	2.3	24	-0.000376372	dWE(1).Potential/dt < 1E-06 V/s
3.81274	0.00854492	2.4	25	0.0012207
3.91274	0.00860596	2.5	26	0.000417077
4.01274	0.00872192	2.6	27	0.00159708
4.11274	0.00881958	2.7	28	0.000640874
4.21274	0.00881653	2.8	29	-0.000808723	dWE(1).Potential/dt < 1E-06 V/s
4.31274	0.00877991	2.9	30	-0.000310236	dWE(1).Potential/dt < 1E-06 V/s
4.41274	0.00870972	3	31	-0.000869768	dWE(1).Potential/dt < 1E-06 V/s
4.51274	0.0086853	3.1	32	0.00024925
4.61274	0.00859375	3.2	33	-0.00162762	dWE(1).Potential/dt < 1E-06 V/s
4.71274	0.00855408	3.3	34	0.000259383
4.81274	0.00846863	3.4	35	-0.00140888	dWE(1).Potential/dt < 1E-06 V/s
4.91274	0.00856323	3.5	36	0.00259908
5.01274	0.00839844	3.6	37	-0.00440979	dWE(1).Potential/dt < 1E-06 V/s
5.11274	0.00825806	3.7	38	-0.000335686	dWE(1).Potential/dt < 1E-06 V/s
5.21274	0.008255	3.8	39	0.0010325
5.31274	0.00819092	3.9	40	-0.00160726	dWE(1).Potential/dt < 1E-06 V/s
5.41274	0.00809631	4	41	-0.000996903	dWE(1).Potential/dt < 1E-06 V/s
5.51274	0.00813599	4.1	42	0.00161743
5.61274	0.00810547	4.2	43	-0.0013377	dWE(1).Potential/dt < 1E-06 V/s
5.71274	0.00809631	4.3	44	0.000320418
5.81274	0.00806274	4.4	45	-0.00061033	dWE(1).Potential/dt < 1E-06 V/s
5.91274	0.00795288	4.5	46	-0.00165304	dWE(1).Potential/dt < 1E-06 V/s
6.01274	0.00778503	4.6	47	-0.00190735	dWE(1).Potential/dt < 1E-06 V/s
6.11274	0.00786438	4.7	48	0.00304667
6.21274	0.00784912	4.8	49	-0.00176492	dWE(1).Potential/dt < 1E-06 V/s
6.31274	0.00783386	4.9	50	0.000162767
6.41274	0.00782166	5	51	-9.66526e-05	dWE(1).Potential/dt < 1E-06 V/s
6.51274	0.00779114	5.1	52	-0.000467927	dWE(1).Potential/dt < 1E-06 V/s
6.61274	0.00775146	5.2	53	-0.000411986	dWE(1).Potential/dt < 1E-06 V/s
6.71274	0.00775757	5.3	54	0.000473019
6.81274	0.00779419	5.4	55	0.000467926
6.91274	0.0079071	5.5	56	0.00166323
7.01274	0.00765076	5.6	57	-0.005895	dWE(1).Potential/dt < 1E-06 V/s
7.11274	0.00758972	5.7	58	0.00224813
7.21274	0.00672607	5.8	59	-0.015976	dWE(1).Potential/dt < 1E-06 V/s
7.31274	0.00740967	5.9	60	0.022405
7.41274	0.0074585	6	61	-0.0099589	dWE(1).Potential/dt < 1E-06 V/s
7.51274	0.00748901	6.1	62	0.00226848
7.61274	0.0075531	6.2	63	0.000981656
7.71274	0.00758057	6.3	64	-0.000142427	dWE(1).Potential/dt < 1E-06 V/s
7.81274	0.00749512	6.4	65	-0.00167336	dWE(1).Potential/dt < 1E-06 V/s
7.91274	0.00747375	6.5	66	0.000696791
8.01274	0.00745239	6.6	67	-0.000427226	dWE(1).Potential/dt < 1E-06 V/s
8.11274	0.00738831	6.7	68	-0.000996915	dWE(1).Potential/dt < 1E-06 V/s
8.21274	0.00734253	6.8	69	-0.000162767	dWE(1).Potential/dt < 1E-06 V/s
8.31274	0.00726929	6.9	70	-0.00102235	dWE(1).Potential/dt < 1E-06 V/s
8.41274	0.00722351	7	71	-0.00013733	dWE(1).Potential/dt < 1E-06 V/s
8.51274	0.00716858	7.1	72	-0.000717171	dWE(1).Potential/dt < 1E-06 V/s
8.61274	0.00708313	7.2	73	-0.00107826	dWE(1).Potential/dt < 1E-06 V/s
8.71274	0.00704041	7.3	74	3.0493e-05
8.81274	0.00699768	7.4	75	-0.000569656	dWE(1).Potential/dt < 1E-06 V/s
8.91274	0.00697632	7.5	76	-3.5592e-05	dWE(1).Potential/dt < 1E-06 V/s
9.01274	0.00699158	7.6	77	0.000386544
9.11274	0.00699768	7.7	78	-0.000137334	dWE(1).Potential/dt < 1E-06 V/s
9.21274	0.00697327	7.8	79	-0.000467924	dWE(1).Potential/dt < 1E-06 V/s
9.31274	0.00696106	7.9	80	8.13821e-05
9.41274	0.00696411	8	81	0.000116966
9.51274	0.00696411	8.1	82	-7.62939e-05	dWE(1).Potential/dt < 1E-06 V/s
9.61274	0.00694885	8.2	83	-0.000269577	dWE(1).Potential/dt < 1E-06 V/s
9.71274	0.00693359	8.3	84	-0.00010173	dWE(1).Potential/dt < 1E-06 V/s
9.81274	0.00688782	8.4	85	-0.000712069	dWE(1).Potential/dt < 1E-06 V/s
9.91274	0.0068512	8.5	86	-0.000188188	dWE(1).Potential/dt < 1E-06 V/s
10.0127	0.00682678	8.6	87	-0.000172939	dWE(1).Potential/dt < 1E-06 V/s
10.1127	0.00682068	8.7	88	5.08704e-05
10.2127	0.00681458	8.8	89	-0.000122072	dWE(1).Potential/dt < 1E-06 V/s
10.3127	0.00679016	8.9	90	-0.000396736	dWE(1).Potential/dt < 1E-06 V/s
10.4127	0.00677185	9	91	-7.12089e-05	dWE(1).Potential/dt < 1E-06 V/s
10.5127	0.00674438	9.1	92	-0.000371295	dWE(1).Potential/dt < 1E-06 V/s
10.6127	0.00674133	9.2	93	0.000203444
10.7127	0.00671692	9.3	94	-0.000503532	dWE(1).Potential/dt < 1E-06 V/s
10.8127	0.00671387	9.4	95	0.000218706
10.9127	0.00670776	9.5	96	-0.00015767	dWE(1).Potential/dt < 1E-06 V/s
11.0127	0.00669556	9.6	97	-0.000162773	dWE(1).Potential/dt < 1E-06 V/s
11.1127	0.00666809	9.7	98	-0.000381463	dWE(1).Potential/dt < 1E-06 V/s
11.2127	0.00665894	9.8	99	0.000111894
11.3127	0.00665588	9.9	100	-4.06771e-05	dWE(1).Potential/dt < 1E-06 V/s
11.4127	0.00666199	10	101	0.00011698
11.5127	0.00666199	10.1	102	-8.13836e-05	dWE(1).Potential/dt < 1E-06 V/s
11.6127	0.00664978	10.2	103	-0.00020346	dWE(1).Potential/dt < 1E-06 V/s
11.7127	0.00662842	10.3	104	-0.000249223	dWE(1).Potential/dt < 1E-06 V/s
11.8127	0.00663147	10.4	105	0.000264494
11.9127	0.00661011	10.5	106	-0.000498459	dWE(1).Potential/dt < 1E-06 V/s
12.0127	0.00661011	10.6	107	0.000259406
12.1127	0.00662537	10.7	108	0.00020854
12.2127	0.00657043	10.8	109	-0.0011851	dWE(1).Potential/dt < 1E-06 V/s
12.3127	0.00653687	10.9	110	7.62846e-05
12.4127	0.00655212	11	111	0.000488289
12.5127	0.00656128	11.1	112	-0.000122067	dWE(1).Potential/dt < 1E-06 V/s
12.6127	0.00655823	11.2	113	-0.000111906	dWE(1).Potential/dt < 1E-06 V/s
12.7127	0.00655518	11.3	114	1.01778e-05
12.8127	0.00653076	11.4	115	-0.000422168	dWE(1).Potential/dt < 1E-06 V/s
12.9127	0.00653076	11.5	116	0.000274662
13.0127	0.00652771	11.6	117	-0.000137334	dWE(1).Potential/dt < 1E-06 V/s
13.1127	0.00652161	11.7	118	-7.62939e-05	dWE(1).Potential/dt < 1E-06 V/s
13.2127	0.0065033	11.8	119	-0.000274647	dWE(1).Potential/dt < 1E-06 V/s
13.3127	0.00650024	11.9	120	0.000137323
13.4127	0.00652466	12	121	0.000422164
13.5127	0.00652161	12.1	122	-0.000350963	dWE(1).Potential/dt < 1E-06 V/s
13.6127	0.00651855	12.2	123	6.10513e-05
13.7127	0.00653687	12.3	124	0.000361116
13.8127	0.00652161	12.4	125	-0.000503533	dWE(1).Potential/dt < 1E-06 V/s
13.9127	0.00651855	12.5	126	0.000183114
[...]
54.6127	0.0111664	53.2	533	-0.000188189	dWE(1).Potential/dt < 1E-06 V/s
54.7127	0.0111664	53.3	534	7.63032e-05
54.8127	0.0111755	53.4	535	0.000157691
54.9127	0.0111786	53.5	536	-5.08843e-05	dWE(1).Potential/dt < 1E-06 V/s
55.0127	0.0111786	53.6	537	-5.08812e-06	dWE(1).Potential/dt < 1E-06 V/s
55.1127	0.0111786	53.7	538	1.01638e-05
55.2127	0.0111877	53.8	539	0.000167855
55.3127	0.0111877	53.9	540	-0.000106823	dWE(1).Potential/dt < 1E-06 V/s
55.4127	0.0111847	54	541	-2.54375e-05	dWE(1).Potential/dt < 1E-06 V/s
55.5127	0.0111847	54.1	542	3.56107e-05
55.6127	0.0111938	54.2	543	0.000157664
55.7127	0.0111908	54.3	544	-0.000162745	dWE(1).Potential/dt < 1E-06 V/s
55.8127	0.0111877	54.4	545	1.017e-05
55.9127	0.0111847	54.5	546	-3.05287e-05	dWE(1).Potential/dt < 1E-06 V/s
56.0127	0.0111877	54.6	547	8.13914e-05
56.1127	0.0111877	54.7	548	-4.57869e-05	dWE(1).Potential/dt < 1E-06 V/s
56.2127	0.0112	54.8	549	0.000233961
56.3127	0.0112091	54.9	550	2.54282e-05
56.4127	0.0112061	55	551	-0.000122056	dWE(1).Potential/dt < 1E-06 V/s
56.5127	0.0112091	55.1	552	0.000122053
56.6127	0.0112274	55.2	553	0.000289921
56.7127	0.0111969	55.3	554	-0.000762933	dWE(1).Potential/dt < 1E-06 V/s
56.8127	0.0111816	55.4	555	0.000137333
56.9127	0.0111908	55.5	556	0.000244159
57.0127	0.0111877	55.6	557	-0.00021363	dWE(1).Potential/dt < 1E-06 V/s
57.1127	0.0111877	55.7	558	6.61146e-05
57.2127	0.0112061	55.8	559	0.000325522
57.3127	0.0112152	55.9	560	-4.57745e-05	dWE(1).Potential/dt < 1E-06 V/s
57.4127	0.0112122	56	561	-0.000101728	dWE(1).Potential/dt < 1E-06 V/s
57.5127	0.0112213	56.1	562	0.000233992
57.6127	0.011203	56.2	563	-0.000452685	dWE(1).Potential/dt < 1E-06 V/s
57.7127	0.011203	56.3	564	0.000244134
57.8127	0.0112152	56.4	565	0.000162752
57.9127	0.0112335	56.5	566	0.00019329
58.0127	0.0112427	56.6	567	-5.10675e-06	dWE(1).Potential/dt < 1E-06 V/s
58.1127	0.0112122	56.7	568	-0.000605248	dWE(1).Potential/dt < 1E-06 V/s
58.2127	0.0112244	56.8	569	0.000610348
58.3127	0.0112457	56.9	570	0.0001475
58.4127	0.0112457	57	571	-0.000208539	dWE(1).Potential/dt < 1E-06 V/s
58.5127	0.0112427	57.1	572	1.52551e-05
58.6127	0.0112457	57.2	573	9.15676e-05
58.7127	0.0112518	57.3	574	6.61239e-05
58.8127	0.0112549	57.4	575	-5.10054e-06	dWE(1).Potential/dt < 1E-06 V/s
58.9127	0.0112579	57.5	576	4.06926e-05
59.0127	0.0112579	57.6	577	-2.54251e-05	dWE(1).Potential/dt < 1E-06 V/s
59.1127	0.011261	57.7	578	6.61301e-05
59.2127	0.0112579	57.8	579	-9.15645e-05	dWE(1).Potential/dt < 1E-06 V/s
59.3127	0.0112579	57.9	580	4.57869e-05
59.4127	0.0112701	58	581	0.000213621
59.5127	0.0112732	58.1	582	-8.64733e-05	dWE(1).Potential/dt < 1E-06 V/s
59.6127	0.011264	58.2	583	-0.000162742	dWE(1).Potential/dt < 1E-06 V/s
59.7127	0.0112854	58.3	584	0.000508595
59.8127	0.0112732	58.4	585	-0.000503532	dWE(1).Potential/dt < 1E-06 V/s
59.9127	0.0112732	58.5	586	0.00021363
60.0127	0.0112823	58.6	587	0.000127175
60.1127	0.0112732	58.7	588	-0.000274675	dWE(1).Potential/dt < 1E-06 V/s
60.2127	0.0112793	58.8	589	0.00024925
60.3127	0.0112854	58.9	590	1.0139e-05
60.4127	0.0112762	59	591	-0.000218696	dWE(1).Potential/dt < 1E-06 V/s
60.5127	0.0112762	59.1	592	0.000127153
60.6127	0.0112701	59.2	593	-0.000142424	dWE(1).Potential/dt < 1E-06 V/s
60.7127	0.0112762	59.3	594	0.00018311
60.8127	0.0112671	59.4	595	-0.000259392	dWE(1).Potential/dt < 1E-06 V/s
60.9127	0.0112366	59.5	596	-0.000432326	dWE(1).Potential/dt < 1E-06 V/s
61.0127	0.0112061	59.6	597	-0.000233961	dWE(1).Potential/dt < 1E-06 V/s
61.1127	0.0111755	59.7	598	-0.000305169	dWE(1).Potential/dt < 1E-06 V/s
61.2127	0.0111328	59.8	599	-0.000528985	dWE(1).Potential/dt < 1E-06 V/s
61.3127	0.0111389	59.9	600	0.000508632