Folder: Streamlit_cement_impedance/data/Z_measu_on_silk_fibroin (part 4)

File: Z_GNP0.1%_SF1.txt
Index	Frequency (Hz)	Z' (Ω)	-Z'' (Ω)	Z (Ω)	-Phase (°)	Time (s)
1	1000000	-3936.36	14532.8	15056.5	105.156	69.9991
2	794330	170.984	23131.6	23132.3	89.5765	71.3341
3	630960	8316.42	33362.9	34383.8	76.003	72.6191
4	501190	16894.7	42598.9	45826.8	68.3668	74.0091
5	398110	24847.6	67800.5	72210.2	69.8731	75.3092
6	316230	36220.7	75683.9	83904.6	64.4252	76.5942
7	251190	43773.7	83112	93934.8	62.225	78.7742
8	199530	53550.4	92826.5	107165	60.0199	79.9492
9	158490	63277.7	103788	121556	58.63	81.2343
10	125890	73208.3	117560	138491	58.0881	82.4143
11	100000	83875.4	133908	158007	57.9383	83.7093
12	79433	94980.5	153921	180867	58.3224	84.8943
13	63096	107358	178621	208402	58.9924	86.1794
14	50119	121550	209875	242532	59.9225	87.4694
15	39811	140845	248157	285341	60.4224	88.7594
16	31623	165506	285357	329880	59.8864	89.9444
17	25119	184843	332782	380672	60.9501	91.1344
18	19953	208574	393120	445024	62.0513	92.3245
19	15849	239977	469050	526875	62.9046	93.5145
20	12589	275235	554727	619255	63.6111	94.7095
21	10000	314609	658862	730121	64.4754	95.9445
22	7943.3	367770	784597	866515	64.8858	97.1346
23	6309.6	435045	932415	1.02891e+06	64.9872	98.3296
24	5011.9	516658	1.11243e+06	1.22656e+06	65.088	99.5246
25	3981.1	620946	1.31795e+06	1.45691e+06	64.7728	100.71
26	3162.3	750410	1.56201e+06	1.73292e+06	64.3398	101.905
27	2511.9	915504	1.8502e+06	2.06431e+06	63.6731	103.09
28	1995.3	1.11868e+06	2.17471e+06	2.44557e+06	62.7786	104.275
29	1584.9	1.38084e+06	2.55558e+06	2.90477e+06	61.6165	105.43
30	1258.9	1.75685e+06	2.95472e+06	3.43757e+06	59.2647	106.585
31	1000	2.10348e+06	3.43798e+06	4.03042e+06	58.5402	107.78
32	794.33	2.6106e+06	3.93002e+06	4.71808e+06	56.4051	109.06
33	630.96	3.19732e+06	4.4214e+06	5.45634e+06	54.1275	110.245
34	501.19	3.87973e+06	4.95981e+06	6.29699e+06	51.9663	111.445
35	398.11	4.7344e+06	5.4749e+06	7.23803e+06	49.1485	112.655
36	316.23	5.59677e+06	6.02522e+06	8.22357e+06	47.1113	113.845
37	251.19	6.55513e+06	6.36581e+06	9.13747e+06	44.1605	115.07
38	199.53	7.79416e+06	6.70149e+06	1.02791e+07	40.6893	116.255
39	158.49	8.8985e+06	6.98472e+06	1.13124e+07	38.1295	117.485
40	125.89	1.01145e+07	6.6157e+06	1.20859e+07	33.188	118.745
41	100	1.12014e+07	6.53103e+06	1.29663e+07	30.2446	120.005
42	79.433	1.2519e+07	6.88562e+06	1.42876e+07	28.8115	121.29
43	63.096	6.60439e+06	3.95321e+06	7.69713e+06	30.9036	122.625
44	50.119	1.48515e+07	7.0391e+06	1.64352e+07	25.3594	123.87
45	39.811	1.57214e+07	7.23389e+06	1.73058e+07	24.7086	132.93
46	31.623	1.56195e+07	8.10731e+06	1.75982e+07	27.4316	134.435
47	25.119	1.71641e+07	4.53842e+06	1.7754e+07	14.8108	135.875
48	19.953	1.88057e+07	6.7265e+06	1.99725e+07	19.6813	137.635
49	15.849	1.75548e+07	4.92836e+06	1.82335e+07	15.6816	139.45
50	12.589	2.09108e+07	7.38469e+06	2.21764e+07	19.4508	141.29
51	10	2.14946e+07	6.71835e+06	2.25201e+07	17.3572	143.455
52	7.9433	2.32737e+07	1.00549e+07	2.53528e+07	23.3656	145.655
53	6.3096	2.37301e+07	7.03167e+06	2.475e+07	16.5055	147.945
54	5.0119	2.43083e+07	6.85259e+06	2.52557e+07	15.7434	150.231
55	3.9811	2.51776e+07	7.29761e+06	2.62139e+07	16.164	152.511
56	3.1623	2.61695e+07	7.43188e+06	2.72043e+07	15.854	154.931
57	2.5119	2.71184e+07	7.99959e+06	2.82737e+07	16.4354	157.316
58	1.9953	2.85093e+07	8.35087e+06	2.97072e+07	16.3262	159.876
59	1.5849	2.9474e+07	8.59518e+06	3.07017e+07	16.2577	162.476
60	1.2589	3.11527e+07	8.61635e+06	3.23223e+07	15.4606	165.276
61	1	3.2154e+07	9.23632e+06	3.34543e+07	16.0268	170.221
62	0.79433	3.35423e+07	9.59158e+06	3.48867e+07	15.9581	173.261
63	0.63096	3.50235e+07	9.95351e+06	3.64104e+07	15.8649	176.611
64	0.50119	3.64043e+07	1.04341e+07	3.78701e+07	15.9932	180.281
65	0.39811	3.7972e+07	1.08929e+07	3.95036e+07	16.0064	184.401
66	0.31623	3.95992e+07	1.12304e+07	4.11609e+07	15.8334	189.111
67	0.25119	4.1272e+07	1.17781e+07	4.29197e+07	15.9275	194.466
68	0.19953	4.31053e+07	1.21616e+07	4.47881e+07	15.7557	200.626
69	0.15849	4.50188e+07	1.26985e+07	4.67755e+07	15.7522	207.837
70	0.12589	4.6852e+07	1.30493e+07	4.86353e+07	15.5636	216.302
71	0.1	4.89291e+07	1.3605e+07	5.07854e+07	15.5389	226.347

File: Z_GNP0.5%_IV.txt
Index	Frequency (Hz)	Z' (Ω)	-Z'' (Ω)	Z (Ω)	-Phase (°)	Time (s)
1	1000000	-2722.69	14831.9	15079.7	100.402	69.9671
2	794330	2207.56	22052.4	22162.6	84.2834	71.4571
3	630960	10224.3	29222.5	30959.5	70.7163	72.7571
4	501190	18279.1	35707.2	40114	62.8913	74.1471
5	398110	26863.8	53890.8	60215.3	63.5044	75.4422
6	316230	34578.3	58448	67910.4	59.3911	76.7272
7	251190	41466.3	62632.7	75115.3	56.4932	78.8772
8	199530	48828.7	68963	84499.4	54.6999	80.0773
9	158490	56107.9	76636.1	94980	53.7909	81.3673
10	125890	63797.4	86194.2	107236	53.4927	82.5523
11	100000	72288.8	98091	121850	53.6114	83.8523
12	79433	81306.8	111531	138022	53.9077	85.0424
13	63096	91901	128797	158223	54.4909	86.3274
14	50119	104717	149463	182496	54.9841	87.6124
15	39811	121312	174158	212244	55.1402	88.7974
16	31623	142325	199409	244990	54.4833	89.9874
17	25119	161074	228528	279589	54.8226	91.1825
18	19953	185486	265609	323965	55.0718	92.3775
19	15849	216428	307564	376080	54.8665	93.5575
20	12589	255195	355383	437517	54.3185	94.7475
21	10000	294723	409231	504313	54.239	95.9626
22	7943.3	351086	467909	584979	53.1181	97.1576
23	6309.6	419585	530205	676143	51.6432	98.3476
24	5011.9	501441	595400	778424	49.8962	99.5326
25	3981.1	598523	661660	892202	47.8682	100.718
26	3162.3	709904	724056	1.01401e+06	45.5654	101.898
27	2511.9	837373	780738	1.14488e+06	42.9954	103.083
28	1995.3	977027	827422	1.28032e+06	40.2605	104.273
29	1584.9	1.13032e+06	858829	1.41958e+06	37.228	105.428
30	1258.9	1.28909e+06	902256	1.57347e+06	34.9889	106.603
31	1000	1.45223e+06	873326	1.6946e+06	31.0214	107.798
32	794.33	1.61135e+06	854041	1.82369e+06	27.9243	109.098
33	630.96	1.75849e+06	831856	1.94532e+06	25.3166	110.268
34	501.19	1.89062e+06	785047	2.04713e+06	22.5498	111.468
35	398.11	2.01455e+06	735002	2.14444e+06	20.0444	112.638
36	316.23	2.14018e+06	705005	2.25331e+06	18.2326	113.833
37	251.19	2.21553e+06	628901	2.30306e+06	15.8472	115.048
38	199.53	2.32668e+06	608532	2.40494e+06	14.6571	116.248
39	158.49	2.3793e+06	551403	2.44236e+06	13.0479	117.483
40	125.89	2.44604e+06	476440	2.49201e+06	11.0221	118.753
41	100	2.54144e+06	522625	2.59462e+06	11.6204	120.003
42	79.433	2.5433e+06	451942	2.58314e+06	10.0762	121.293
43	63.096	1.88116e+06	849741	2.06418e+06	24.3092	122.638
44	50.119	2.65264e+06	427766	2.68691e+06	9.16067	132.378
45	39.811	2.72094e+06	427560	2.75433e+06	8.93024	141.288
46	31.623	2.64819e+06	544036	2.7035e+06	11.6091	142.783
47	25.119	2.69372e+06	352018	2.71662e+06	7.44529	144.223
48	19.953	2.85364e+06	432015	2.88616e+06	8.60868	145.998
49	15.849	2.97766e+06	604702	3.03844e+06	11.4795	147.809
50	12.589	2.86221e+06	385226	2.88801e+06	7.66542	149.744
51	10	3.03622e+06	482604	3.07433e+06	9.03155	151.909
52	7.9433	3.16358e+06	626535	3.22503e+06	11.2022	154.099
53	6.3096	3.18972e+06	504723	3.22941e+06	8.99161	156.279
54	5.0119	3.25549e+06	547608	3.30123e+06	9.54837	158.499
55	3.9811	3.32603e+06	568555	3.37428e+06	9.70042	160.784
56	3.1623	3.40624e+06	602342	3.45909e+06	10.0282	163.204
57	2.5119	3.49404e+06	623212	3.54918e+06	10.1132	165.604
58	1.9953	3.58628e+06	651419	3.64496e+06	10.2951	168.169
59	1.5849	3.66721e+06	677344	3.72924e+06	10.4647	170.744
60	1.2589	3.77676e+06	742361	3.84903e+06	11.1203	173.549
61	1	3.87669e+06	760762	3.95063e+06	11.1027	176.734
62	0.79433	3.97656e+06	794360	4.05512e+06	11.2968	179.864
63	0.63096	4.08328e+06	835181	4.16782e+06	11.5597	183.274
64	0.50119	4.18794e+06	884751	4.28038e+06	11.929	186.934
65	0.39811	4.31028e+06	936116	4.41077e+06	12.2533	191.014
66	0.31623	4.43162e+06	1.01518e+06	4.54641e+06	12.9025	195.599
67	0.25119	4.55549e+06	1.08179e+06	4.68218e+06	13.3586	200.929
68	0.19953	4.69133e+06	1.16986e+06	4.83499e+06	14.0021	206.99
69	0.15849	4.83855e+06	1.2848e+06	5.00622e+06	14.8708	214.08
70	0.12589	5.01379e+06	1.37323e+06	5.19845e+06	15.3171	222.485
71	0.1	5.16738e+06	1.53123e+06	5.38948e+06	16.5059	232.59

File: Z_GNP0.5%_SF1.txt
Index	Frequency (Hz)	Z' (Ω)	-Z'' (Ω)	Z (Ω)	-Phase (°)	Time (s)
1	1000000	-2761.6	14645.5	14903.6	100.678	69.9211
2	794330	1977.2	21777.5	21867.1	84.8123	71.2261
3	630960	9459.66	29034.6	30536.8	71.9541	72.5211
4	501190	17511.3	36368.4	40364.6	64.2893	73.9112
5	398110	24731.3	53717.1	59136.9	65.2787	75.2062
6	316230	32946.5	59177.7	67730.9	60.8936	76.4912
7	251190	39275.1	64345.4	75384.8	58.601	77.6862
8	199530	46478.2	71300.3	85111.5	56.9011	79.0062
9	158490	53727.4	79902.8	96286.5	56.0827	80.2963
10	125890	61353.8	90307.9	109178	55.8084	81.4813
11	100000	69360.3	102949	124135	56.0306	82.7763
12	79433	78366.7	118371	141962	56.4938	83.9563
13	63096	88156.3	137327	163188	57.3019	85.2414
14	50119	99792.9	160737	189195	58.166	86.5314
15	39811	114620	189177	221191	58.7888	87.7264
16	31623	133806	218773	256448	58.5492	88.9164
17	25119	150485	254147	295358	59.3695	90.1065
18	19953	170200	299964	344886	60.4294	91.2965
19	15849	195167	354293	404491	61.1513	92.4815
20	12589	225842	418172	475261	61.6279	93.6715
21	10000	256425	493596	556229	62.548	94.9065
22	7943.3	300562	584790	657508	62.7984	96.1016
23	6309.6	355374	690399	776493	62.7635	97.2966
24	5011.9	420924	815291	917538	62.6933	98.4916
25	3981.1	503704	961713	1.08564e+06	62.3564	99.6766
26	3162.3	606571	1.13016e+06	1.28265e+06	61.777	100.857
27	2511.9	733214	1.32332e+06	1.51287e+06	61.0104	102.042
28	1995.3	882861	1.54868e+06	1.78266e+06	60.3138	103.242
29	1584.9	1.07881e+06	1.78935e+06	2.0894e+06	58.914	104.392
30	1258.9	1.2975e+06	2.09054e+06	2.46046e+06	58.1741	105.567
31	1000	1.59432e+06	2.35237e+06	2.84175e+06	55.8725	106.762
32	794.33	1.89503e+06	2.65926e+06	3.2654e+06	54.5257	108.047
33	630.96	2.2952e+06	3.00133e+06	3.77835e+06	52.5938	109.217
34	501.19	2.73569e+06	3.36568e+06	4.33725e+06	50.8951	110.422
35	398.11	3.20123e+06	3.6608e+06	4.86305e+06	48.8315	111.617
36	316.23	3.79107e+06	4.1716e+06	5.63688e+06	47.736	112.817
37	251.19	4.44914e+06	4.35332e+06	6.22465e+06	44.3763	114.042
38	199.53	4.90074e+06	4.94736e+06	6.96373e+06	45.2712	115.237
39	158.49	5.85752e+06	5.32082e+06	7.91339e+06	42.2512	116.457
40	125.89	7.02826e+06	4.93272e+06	8.58651e+06	35.0628	117.727
41	100	6.91791e+06	5.8588e+06	9.06549e+06	40.2614	118.982
42	79.433	8.76221e+06	5.86516e+06	1.0544e+07	33.7971	120.272
43	63.096	2.94808e+06	2.42848e+06	3.81952e+06	39.48	121.612
44	50.119	1.09162e+07	6.77475e+06	1.28476e+07	31.8242	122.947
45	39.811	1.25147e+07	7.0276e+06	1.43528e+07	29.3164	131.942
46	31.623	1.45157e+07	1.17174e+07	1.86548e+07	38.9111	133.442
47	25.119	1.24768e+07	5.59151e+06	1.36724e+07	24.1397	134.882
48	19.953	1.54661e+07	6.34312e+06	1.67163e+07	22.3001	136.642
49	15.849	1.8909e+07	-82853.1	1.89092e+07	-0.25105	138.472
50	12.589	1.9457e+07	5.10761e+06	2.01162e+07	14.7087	140.412
51	10	1.82903e+07	5.86617e+06	1.9208e+07	17.7824	142.582
52	7.9433	2.25795e+07	6.76832e+06	2.35721e+07	16.6864	144.782
53	6.3096	1.94414e+07	4.90457e+06	2.00505e+07	14.1588	147.078
54	5.0119	2.07587e+07	4.94598e+06	2.13398e+07	13.4015	149.388
55	3.9811	2.06677e+07	4.75203e+06	2.1207e+07	12.9487	151.673
56	3.1623	2.2056e+07	4.66824e+06	2.25446e+07	11.9505	154.093
57	2.5119	2.32976e+07	4.64006e+06	2.37552e+07	11.2639	156.483
58	1.9953	2.32821e+07	5.05172e+06	2.38238e+07	12.2422	159.043
59	1.5849	2.43311e+07	5.4312e+06	2.49299e+07	12.5833	161.708
60	1.2589	2.51234e+07	6.03263e+06	2.58375e+07	13.5022	164.508
61	1	2.54758e+07	5.35442e+06	2.60324e+07	11.8695	169.423
62	0.79433	2.62049e+07	5.27205e+06	2.673e+07	11.3752	172.423
63	0.63096	2.69605e+07	5.23561e+06	2.74641e+07	10.9898	175.838
64	0.50119	2.73512e+07	5.47497e+06	2.78938e+07	11.3195	179.493
65	0.39811	2.83974e+07	5.75852e+06	2.89754e+07	11.4632	183.558
66	0.31623	2.91544e+07	5.71856e+06	2.97099e+07	11.0975	188.238
67	0.25119	3.01215e+07	5.59702e+06	3.06371e+07	10.5263	193.508
68	0.19953	3.10567e+07	5.98955e+06	3.1629e+07	10.916	199.573
69	0.15849	3.19517e+07	6.05871e+06	3.25211e+07	10.737	206.664
70	0.12589	3.2956e+07	6.26766e+06	3.35467e+07	10.7681	215.134
71	0.1	3.3736e+07	6.3601e+06	3.43303e+07	10.6764	225.269

File: Z_GNP1%_IV.txt
Index	Frequency (Hz)	Z' (Ω)	-Z'' (Ω)	Z (Ω)	-Phase (°)	Time (s)
1	1000000	-520.279	13423.6	13433.7	92.2196	39.4025
2	794330	4507.41	17650.9	18217.3	75.6749	40.7025
3	630960	10472.1	21753.1	24142.6	64.2935	41.9876
4	501190	15891.8	25291.2	29869.6	57.8567	43.3776
5	398110	20562.1	33918.8	39664.6	58.7751	44.6976
6	316230	24520.2	37503.3	44807.8	56.8227	45.9926
7	251190	27967.9	41016.2	49644	55.711	48.1427
8	199530	32021.2	46394.7	56372.2	55.3869	49.3427
9	158490	36409.3	52944.2	64255.2	55.484	50.6377
10	125890	41172.6	60957	73559.1	55.9634	51.8377
11	100000	46745.8	70629.7	84697.9	56.5017	53.1378
12	79433	52956.2	82085.9	97685.4	57.1727	54.3278
13	63096	60182.3	96252.4	113518	57.9841	55.6278
14	50119	69220.1	112351	131963	58.3626	56.9228
15	39811	80136.8	132152	154551	58.7675	58.1229
16	31623	93616.9	154513	180661	58.789	59.3129
17	25119	109780	181191	211853	58.7892	60.5129
18	19953	129499	211462	247964	58.5168	61.7029
19	15849	153777	246629	290643	58.0558	62.898
20	12589	184362	286537	340724	57.2423	64.098
21	10000	216636	330569	395231	56.7614	65.313
22	7943.3	262095	378983	460784	55.3333	66.503
23	6309.6	317203	430887	535053	53.6409	67.698
24	5011.9	383734	484910	618376	51.6436	68.8881
25	3981.1	461491	538894	709493	49.4243	70.0781
26	3162.3	551507	591037	808383	46.9815	71.2681
27	2511.9	653595	638884	913980	44.3479	72.4531
28	1995.3	763882	681611	1.02377e+06	41.7425	73.6482
29	1584.9	888150	713147	1.13903e+06	38.763	74.8032
30	1258.9	1.02441e+06	746807	1.26773e+06	36.0926	75.9682
31	1000	1.15153e+06	747153	1.37268e+06	32.9769	77.1682
32	794.33	1.28158e+06	755557	1.48772e+06	30.5216	78.4582
33	630.96	1.41746e+06	733786	1.59613e+06	27.3696	79.6433
34	501.19	1.54664e+06	707142	1.70063e+06	24.5705	80.8433
35	398.11	1.66026e+06	671421	1.79088e+06	22.0188	82.0133
36	316.23	1.77337e+06	620589	1.87883e+06	19.2874	83.2033
37	251.19	1.86369e+06	570408	1.94903e+06	17.0174	84.4334
38	199.53	1.94914e+06	540448	2.02268e+06	15.4973	85.6234
39	158.49	2.02226e+06	488731	2.08048e+06	13.5865	86.8484
40	125.89	2.05183e+06	451223	2.10086e+06	12.4026	88.1084
41	100	2.15458e+06	434713	2.198e+06	11.407	89.3784
42	79.433	2.17484e+06	359835	2.20441e+06	9.39467	90.6735
43	63.096	1.78882e+06	162557	1.79619e+06	5.19243	92.0185
44	50.119	2.26647e+06	317021	2.28854e+06	7.96254	101.774
45	39.811	2.29146e+06	297615	2.31071e+06	7.40016	110.684
46	31.623	2.3095e+06	224724	2.32041e+06	5.5576	112.184
47	25.119	2.4063e+06	236363	2.41788e+06	5.60999	113.729
48	19.953	2.39362e+06	263982	2.40813e+06	6.29346	115.489
49	15.849	2.41857e+06	200823	2.4269e+06	4.74659	117.309
50	12.589	2.44443e+06	255341	2.45773e+06	5.96339	119.144
51	10	2.48984e+06	248478	2.5022e+06	5.69907	121.314
52	7.9433	2.51304e+06	236826	2.52417e+06	5.38358	123.504
53	6.3096	2.5836e+06	253593	2.59602e+06	5.6059	125.804
54	5.0119	2.58756e+06	255080	2.6001e+06	5.63001	128.119
55	3.9811	2.62213e+06	262334	2.63522e+06	5.71321	130.409
56	3.1623	2.65931e+06	265189	2.6725e+06	5.69476	132.814
57	2.5119	2.68946e+06	266506	2.70263e+06	5.65912	135.199
58	1.9953	2.72534e+06	282990	2.74e+06	5.92814	137.759
59	1.5849	2.76268e+06	290786	2.77794e+06	6.00854	140.344
60	1.2589	2.80352e+06	299672	2.81949e+06	6.10126	143.149
61	1	2.84668e+06	319016	2.8645e+06	6.39423	146.279
62	0.79433	2.89005e+06	334281	2.90931e+06	6.59787	149.45
63	0.63096	2.93346e+06	354716	2.95483e+06	6.89477	152.87
64	0.50119	2.97851e+06	373958	3.00189e+06	7.15615	156.605
65	0.39811	3.02515e+06	400519	3.05155e+06	7.54188	160.75
66	0.31623	3.07021e+06	436056	3.10102e+06	8.08354	165.43
67	0.25119	3.12753e+06	467638	3.1623e+06	8.50404	170.735
68	0.19953	3.18382e+06	509762	3.22438e+06	9.09643	176.79
69	0.15849	3.24419e+06	562405	3.29258e+06	9.83491	183.895
70	0.12589	3.318e+06	626535	3.37664e+06	10.6932	192.355
71	0.1	3.38285e+06	682672	3.45105e+06	11.4093	202.456

File: Z_GNP1%_SF2.txt
Index	Frequency (Hz)	Z' (Ω)	-Z'' (Ω)	Z (Ω)	-Phase (°)	Time (s)
1	1000000	-2970.55	14259.4	14565.5	101.768	69.9451
2	794330	917.616	21356.3	21376	87.5397	71.2501
3	630960	7823.79	29959.4	30964.1	75.3643	72.5351
4	501190	15183.4	36256.9	39307.8	67.2774	73.9351
5	398110	18497.9	57881.2	60765.1	72.2769	75.2352
6	316230	26184.5	66395.2	71371.9	68.4771	76.5452
7	251190	32099.8	74190.2	80836.7	66.6034	78.6902
8	199530	39331.2	85162.7	93806.4	65.2108	79.8903
9	158490	46648.7	98354.4	108856	64.6254	81.1753
10	125890	54587.7	114532	126876	64.5169	82.3653
11	100000	62671.4	133437	147422	64.842	83.6603
12	79433	72833.8	157306	173350	65.1556	84.8454
13	63096	83721.4	186516	204444	65.8261	86.1454
14	50119	96530.5	222556	242588	66.5519	87.4404
15	39811	114660	268671	292115	66.8887	88.6354
16	31623	143349	316945	347855	65.6636	89.8304
17	25119	164070	368992	403824	66.0279	91.0155
18	19953	189775	439105	478359	66.6267	92.2205
19	15849	224061	526251	571965	66.9372	93.4105
20	12589	266121	631543	685323	67.1503	94.6005
21	10000	308407	749322	810307	67.6288	95.8156
22	7943.3	374214	895915	970927	67.3302	97.0056
23	6309.6	455848	1.0661e+06	1.15947e+06	66.8492	98.2006
24	5011.9	559801	1.26945e+06	1.3874e+06	66.2035	99.3856
25	3981.1	696083	1.50225e+06	1.65568e+06	65.1388	100.571
26	3162.3	855554	1.7776e+06	1.97278e+06	64.2986	101.761
27	2511.9	1.07117e+06	2.08808e+06	2.3468e+06	62.8425	102.961
28	1995.3	1.33861e+06	2.43596e+06	2.77953e+06	61.2103	104.156
29	1584.9	1.67753e+06	2.82631e+06	3.28666e+06	59.3091	105.311
30	1258.9	2.18438e+06	3.25626e+06	3.92107e+06	56.1453	106.481
31	1000	2.55619e+06	3.66056e+06	4.46473e+06	55.0732	107.676
32	794.33	3.14456e+06	4.07422e+06	5.14661e+06	52.3384	108.996
33	630.96	3.87799e+06	4.46926e+06	5.91718e+06	49.0517	110.166
34	501.19	4.6153e+06	4.8457e+06	6.69192e+06	46.395	111.361
35	398.11	5.66626e+06	5.13883e+06	7.64945e+06	42.2054	112.541
36	316.23	6.22216e+06	5.25585e+06	8.14489e+06	40.1877	113.736
37	251.19	7.61685e+06	5.57341e+06	9.43818e+06	36.1937	114.956
38	199.53	8.20076e+06	5.397e+06	9.81733e+06	33.3493	116.156
39	158.49	9.33455e+06	5.59015e+06	1.08804e+07	30.916	117.381
40	125.89	1.12312e+07	4.45028e+06	1.20808e+07	21.6156	118.651
41	100	1.11031e+07	6.48966e+06	1.28606e+07	30.3058	119.916
42	79.433	1.19885e+07	4.33345e+06	1.27477e+07	19.8733	121.211
43	63.096	3.8743e+06	1.41804e+06	4.12566e+06	20.1033	122.546
44	50.119	1.33214e+07	4.48678e+06	1.40567e+07	18.6141	123.786
45	39.811	1.33486e+07	4.34705e+06	1.40386e+07	18.0382	132.781
46	31.623	1.43631e+07	1.01794e+06	1.43991e+07	4.05391	134.271
47	25.119	1.65887e+07	6.21484e+06	1.77146e+07	20.5381	135.711
48	19.953	1.54984e+07	4.20636e+06	1.60591e+07	15.1846	137.471
49	15.849	1.88388e+07	4.62697e+06	1.93987e+07	13.7992	139.286
50	12.589	1.81934e+07	7.60987e+06	1.97208e+07	22.6984	141.131
51	10	1.71698e+07	3.94543e+06	1.76173e+07	12.9413	143.341
52	7.9433	1.72209e+07	2.37245e+06	1.73835e+07	7.84404	145.531
53	6.3096	1.78075e+07	5.26496e+06	1.85695e+07	16.4708	147.727
54	5.0119	1.86835e+07	4.34906e+06	1.9183e+07	13.1037	150.047
55	3.9811	1.88937e+07	4.02184e+06	1.9317e+07	12.017	152.337
56	3.1623	1.98749e+07	4.04907e+06	2.02832e+07	11.5152	154.757
57	2.5119	1.99132e+07	4.37064e+06	2.03872e+07	12.3792	157.157
58	1.9953	2.10194e+07	4.91553e+06	2.15865e+07	13.1625	159.717
59	1.5849	2.20791e+07	5.25127e+06	2.2695e+07	13.3786	162.392
60	1.2589	2.3476e+07	5.49053e+06	2.41095e+07	13.1636	165.097
61	1	2.33628e+07	5.24003e+06	2.39432e+07	12.6416	169.942
62	0.79433	2.40395e+07	5.51448e+06	2.46639e+07	12.9197	173.002
63	0.63096	2.51304e+07	5.45497e+06	2.57156e+07	12.247	176.357
64	0.50119	2.51201e+07	5.25429e+06	2.56638e+07	11.814	180.032
65	0.39811	2.6633e+07	5.46724e+06	2.71884e+07	11.6005	184.102
66	0.31623	2.70481e+07	5.78067e+06	2.76589e+07	12.0636	188.692
67	0.25119	2.79942e+07	6.19972e+06	2.86725e+07	12.4874	194.027
68	0.19953	2.83922e+07	7.30826e+06	2.93177e+07	14.4348	200.162
69	0.15849	2.98335e+07	6.77628e+06	3.05934e+07	12.7968	207.353
70	0.12589	3.0845e+07	6.57986e+06	3.1539e+07	12.0419	215.803
71	0.1	3.17837e+07	6.18001e+06	3.23789e+07	11.0033	225.918